t,gx,gy,gz,ax,ay,az,mx,my,mz,qw,qx,qy,qz,bgx,bgy,bgz
0,0.00804219,-0.00741656,0.00487669,0.274609,-0.277692,-9.87679,19.4357,0.357184,44.5207,0.999868,0.0109992,0.0119152,0.00110024,0.00868002,-0.00517119,0.0035102
0.01,0.010506,-0.00717055,0.00649657,0.266299,-0.216201,-9.78975,19.7838,2.03182,45.0337,0.999868,0.0110036,0.0119148,0.00110006,0.00866874,-0.00509652,0.00347423
0.02,0.00992969,-0.00177704,0.00391956,0.247543,-0.222733,-9.81493,19.655,1.27051,44.1195,0.999868,0.0110123,0.011914,0.00109969,0.0086386,-0.00513051,0.003485
0.03,0.0118049,-0.00730834,0.0026545,0.187223,-0.27642,-9.77534,19.7589,0.723622,43.4908,0.999868,0.0110254,0.0119128,0.00109914,0.00861308,-0.0051307,0.00347238
0.04,0.0118656,-0.00137042,0.00535284,0.304832,-0.209935,-9.74467,19.4039,1.05178,44.2976,0.999867,0.0110428,0.0119112,0.00109842,0.00868455,-0.00515716,0.0035147
0.05,0.0152241,-0.00701733,0.00322055,0.264314,-0.227303,-9.81167,19.4416,0.561795,44.0594,0.999867,0.0110645,0.0119091,0.00109751,0.00865635,-0.005153,0.00355214
0.06,0.015392,-0.00329827,0.00220212,0.183017,-0.289458,-9.82209,19.7934,1.45266,43.9506,0.999867,0.0110904,0.0119065,0.00109643,0.00868316,-0.00512499,0.00354422
0.07,0.014738,-0.00553707,0.00453328,0.271956,-0.153006,-9.68763,20.2482,0.585121,44.4892,0.999867,0.0111204,0.0119034,0.00109517,0.00871293,-0.00512823,0.00356475
0.08,0.0120793,-0.00631945,0.00372501,0.376292,-0.281573,-9.70847,19.9899,0.635691,44.2475,0.999866,0.0111546,0.0118998,0.00109373,0.00869905,-0.00517784,0.00354798
0.09,0.0168319,-0.00797052,0.000243568,0.307458,-0.277286,-9.745,20.0718,0.868228,44.0227,0.999866,0.0111928,0.0118956,0.00109212,0.00869048,-0.00523055,0.00354638
0.1,0.0160341,-0.0088269,0.00216222,0.244936,-0.228224,-9.79415,19.5948,1.83834,43.9998,0.999866,0.011235,0.0118909,0.00109035,0.00868951,-0.00526878,0.0035611
0.11,0.0182686,-0.00735588,0.00664104,0.329942,-0.255808,-9.80614,19.265,0.785457,43.9804,0.999865,0.0112811,0.0118857,0.0010884,0.00871412,-0.00526717,0.00359152
0.12,0.0189823,-0.00300399,0.00420751,0.265772,-0.304016,-9.81151,19.4178,0.422846,43.8716,0.999865,0.0113311,0.0118799,0.00108628,0.00873286,-0.00527765,0.00363511
0.13,0.0194664,-0.00732865,0.00461018,0.321352,-0.338324,-9.75234,19.4343,1.10524,44.0762,0.999864,0.0113849,0.0118734,0.001084,0.00877446,-0.00524487,0.00360876
0.14,0.0209367,-0.00938198,0.005301,0.34457,-0.278635,-9.65567,18.475,0.212495,44.0952,0.999864,0.0114424,0.0118664,0.00108156,0.00878204,-0.00531264,0.00359175
0.15,0.0237818,-0.00712172,0.00246675,0.185453,-0.200363,-9.83778,18.8582,1.40387,43.8922,0.999863,0.0115036,0.0118588,0.00107895,0.00881374,-0.00536452,0.00356584
0.16,0.0232074,-0.00731646,0.000652866,0.411864,-0.289276,-9.83013,19.8748,-0.0599703,43.4683,0.999862,0.0115683,0.0118505,0.00107618,0.00880987,-0.00545389,0.00356365
0.17,0.0189855,-0.00732769,0.00202533,0.259865,-0.274482,-9.75418,19.32,-0.100132,43.4514,0.999862,0.0116364,0.0118415,0.00107325,0.00874374,-0.00543947,0.0036265
0.18,0.0237146,-0.0086923,0.00235482,0.24423,-0.28599,-9.82495,18.7752,0.519342,43.0197,0.999861,0.011708,0.0118319,0.00107017,0.00870087,-0.00543448,0.00361947
0.19,0.0236566,-0.00834902,0.00274715,0.321737,-0.331035,-9.73844,20.0621,0.868455,44.3973,0.99986,0.0117829,0.0118216,0.00106693,0.00872627,-0.00549486,0.00360323
0.2,0.0240952,-0.0102346,0.00626717,0.275159,-0.209996,-9.77335,19.7613,0.715137,44.4176,0.999859,0.011861,0.0118106,0.00106354,0.00872574,-0.00551672,0.00360507
0.21,0.0247568,-0.00831405,0.00404901,0.318054,-0.193742,-9.73999,19.5877,-0.306054,44.565,0.999859,0.0119421,0.0117989,0.00106,0.0087272,-0.00550056,0.00367151
0.22,0.0259302,-0.00846157,0.00343629,0.345229,-0.306339,-9.6701,19.4868,0.399373,44.1639,0.999858,0.0120263,0.0117864,0.00105631,0.00872062,-0.00550881,0.0036302
0.23,0.0276173,-0.00678366,0.00332369,0.24193,-0.278698,-9.72642,19.2522,0.418388,44.0437,0.999857,0.0121135,0.0117733,0.00105248,0.008728,-0.00548673,0.00362105
0.24,0.0279506,-0.00826448,0.00106145,0.321977,-0.346062,-9.70338,18.8696,1.42088,44.226,0.999856,0.0122034,0.0117594,0.0010485,0.00876141,-0.00545239,0.00358229
0.25,0.0291875,-0.00861684,0.00116037,0.261568,-0.348585,-9.76981,19.2007,0.511235,45.5809,0.999855,0.012296,0.0117447,0.00104438,0.00869279,-0.00537793,0.00357599
0.26,0.0293036,-0.00834823,0.00277818,0.334066,-0.202532,-9.71656,20.1997,0.639215,44.4637,0.999854,0.0123912,0.0117293,0.00104013,0.00869065,-0.00536763,0.003539
0.27,0.0286839,-0.00726945,0.00427046,0.259599,-0.357136,-9.78686,20.3264,0.429224,44.6682,0.999853,0.0124889,0.0117131,0.00103573,0.00869215,-0.00540341,0.0035304
0.28,0.030337,-0.00788521,0.00570305,0.333639,-0.264334,-9.67898,18.9826,0.139016,44.4557,0.999852,0.0125889,0.0116961,0.00103121,0.00872835,-0.00535885,0.00353738
0.29,0.0306962,-0.0102949,0.00416626,0.370083,-0.244413,-9.80732,19.7232,1.22407,44.4594,0.999851,0.0126912,0.0116783,0.00102655,0.00875222,-0.00532922,0.0035137
0.3,0.0280044,-0.0104696,0.00134002,0.265704,-0.277339,-9.65654,19.7518,0.896767,44.1317,0.99985,0.0127956,0.0116598,0.00102176,0.00876625,-0.00537762,0.00347361
0.31,0.0295333,-0.00525287,0.00141938,0.377859,-0.264703,-9.74162,19.6444,0.359602,43.5525,0.999848,0.0129021,0.0116403,0.00101684,0.00875592,-0.00535886,0.00341055
0.32,0.0303453,-0.0080197,0.00191679,0.284272,-0.295128,-9.61294,19.4519,0.0954784,44.4073,0.999847,0.0130104,0.0116201,0.0010118,0.00869355,-0.00532085,0.00341618
0.33,0.0296908,-0.0058471,0.00402685,0.306121,-0.216958,-9.69976,18.5903,1.00825,43.5765,0.999846,0.0131205,0.0115991,0.00100664,0.00865247,-0.00531217,0.00345325
0.34,0.0334477,-0.0119567,0.00351501,0.37721,-0.281474,-9.77386,18.8131,1.73422,44.4302,0.999845,0.0132323,0.0115772,0.00100136,0.00867358,-0.00529448,0.0034394
0.35,0.0308433,-0.00961469,0.00382857,0.370254,-0.223087,-9.73605,19.4416,1.15641,44.8377,0.999844,0.0133456,0.0115544,0.00099596,0.00868411,-0.00532508,0.00343892
0.36,0.0294755,-0.011736,0.00287763,0.317926,-0.308196,-9.72067,19.7547,0.761206,45.2771,0.999842,0.0134602,0.0115308,0.000990447,0.00873617,-0.0052518,0.00343098
0.37,0.0329086,-0.00895526,0.00088119,0.323409,-0.339777,-9.67374,19.3991,0.537264,44.4258,0.999841,0.0135761,0.0115064,0.000984823,0.00872624,-0.00525598,0.00342367
0.38,0.0341297,-0.0120781,0.00406344,0.350461,-0.273788,-9.70516,19.8466,1.00572,43.724,0.99984,0.0136932,0.011481,0.000979088,0.00867895,-0.0052575,0.00341273
0.39,0.0313633,-0.0093927,0.00323431,0.340075,-0.371859,-9.6881,20.1337,0.466804,43.4906,0.999839,0.0138113,0.0114549,0.000973247,0.00867674,-0.00529912,0.0034483
0.4,0.0303046,-0.00846348,0.00685025,0.22892,-0.27482,-9.65211,19.7731,0.0739944,44.9407,0.999837,0.0139302,0.0114278,0.000967302,0.00865979,-0.00528353,0.00343676
0.41,0.0338649,-0.0105349,0.00392806,0.290638,-0.235949,-9.58412,20.2054,1.10813,44.1306,0.999836,0.0140499,0.0113998,0.000961255,0.00866807,-0.00533531,0.00353772
0.42,0.0312956,-0.0100431,0.00207895,0.220696,-0.352973,-9.59007,18.4608,1.57691,44.9365,0.999834,0.0141702,0.011371,0.000955108,0.00865404,-0.00536483,0.00354366
0.43,0.0351076,-0.0115193,0.00229315,0.308167,-0.359698,-9.577,20.396,0.707068,44.3186,0.999833,0.014291,0.0113413,0.000948865,0.00865027,-0.00539334,0.00351176
0.44,0.031742,-0.0143242,-0.000172995,0.314283,-0.36329,-9.61222,18.8401,1.21634,43.7669,0.999832,0.0144121,0.0113107,0.000942527,0.00865893,-0.00539942,0.00352708
0.45,0.0316667,-0.0105519,-0.00021297,0.314914,-0.385557,-9.62296,19.1388,1.7655,44.0541,0.99983,0.0145335,0.0112792,0.000936097,0.00866482,-0.00541598,0.0035045
0.46,0.0330604,-0.00812701,0.00366765,0.358069,-0.293036,-9.5965,18.7729,1.58207,43.8165,0.999829,0.0146549,0.0112468,0.000929577,0.008632,-0.0054092,0.0035102
0.47,0.0340553,-0.0120912,-0.000207888,0.329513,-0.325981,-9.6816,19.8885,1.37245,43.535,0.999828,0.0147763,0.0112134,0.00092297,0.00865377,-0.00537351,0.00358689
0.48,0.0344967,-0.0119296,0.00563635,0.354822,-0.293964,-9.67223,19.8386,0.907556,43.3524,0.999826,0.0148975,0.0111792,0.000916279,0.00865064,-0.00533398,0.0036125
0.49,0.0309381,-0.0124039,0.00224694,0.29558,-0.438633,-9.65536,20.4855,0.239833,43.9356,0.999825,0.0150183,0.0111441,0.000909505,0.00867986,-0.00530208,0.00365157
0.5,0.0301118,-0.0132104,0.00212477,0.297286,-0.2975,-9.63583,19.7654,1.10466,44.6241,0.999823,0.0151388,0.0111081,0.000902651,0.00866842,-0.00520252,0.00359394
0.51,0.0346847,-0.0141345,0.00345975,0.250462,-0.300899,-9.63168,19.7996,0.00628607,44.4847,0.999822,0.0152586,0.0110712,0.000895719,0.00865098,-0.00520954,0.00355972
0.52,0.0350652,-0.0152708,0.00171529,0.365156,-0.327707,-9.62243,19.7623,2.14588,44.7236,0.99982,0.0153777,0.0110334,0.000888711,0.00856669,-0.00518027,0.00353344
0.53,0.0312906,-0.0135969,0.00450042,0.3281,-0.473541,-9.68934,20.4867,0.198683,43.4903,0.999819,0.015496,0.0109947,0.00088163,0.00855018,-0.00520395,0.00352794
0.54,0.0313334,-0.0107491,-0.00112627,0.325809,-0.369263,-9.57187,19.7774,1.67651,44.1385,0.999818,0.0156133,0.010955,0.000874478,0.00855005,-0.00524268,0.00350542
0.55,0.0335708,-0.0137266,0.00508576,0.35436,-0.360255,-9.70046,19.9895,1.67107,43.9536,0.999816,0.0157296,0.0109145,0.000867257,0.00855063,-0.00521745,0.00347371
0.56,0.0284829,-0.0129043,0.000265945,0.331648,-0.422298,-9.58988,19.4973,1.48988,45.1994,0.999815,0.0158446,0.0108731,0.000859968,0.00855593,-0.00518646,0.00348131
0.57,0.030324,-0.0169574,0.00194161,0.343362,-0.344732,-9.59691,18.6684,2.21424,44.5682,0.999814,0.0159582,0.0108307,0.000852614,0.00854628,-0.00520167,0.00348888
0.58,0.0318657,-0.0134873,0.0030283,0.347975,-0.397662,-9.51315,20.5161,0.603396,44.545,0.999812,0.0160704,0.0107875,0.000845198,0.00854017,-0.00522788,0.00350149
0.59,0.0297677,-0.0143031,0.00180012,0.33116,-0.366725,-9.69074,19.7942,0.416065,43.2792,0.999811,0.016181,0.0107434,0.00083772,0.0085255,-0.00523559,0.00347011
0.6,0.0272749,-0.0173587,0.0020292,0.332394,-0.306091,-9.59792,19.6264,1.23948,43.5194,0.99981,0.0162898,0.0106984,0.000830182,0.0085945,-0.00524475,0.00348002
0.61,0.0279189,-0.0117487,0.00446245,0.294794,-0.298718,-9.66732,19.8341,1.14152,44.4624,0.999808,0.0163969,0.0106525,0.000822587,0.00861463,-0.00524463,0.00341818
0.62,0.028754,-0.0147832,0.00183297,0.327103,-0.318077,-9.56701,19.0321,1.13559,43.6613,0.999807,0.016502,0.0106058,0.000814937,0.00864703,-0.0052047,0.00341542
0.63,0.0283905,-0.0172168,0.0027209,0.299344,-0.396326,-9.65209,19.5184,2.54587,44.2081,0.999806,0.016605,0.0105581,0.000807231,0.00869577,-0.00525657,0.00341204
0.64,0.0295721,-0.0141777,0.00261978,0.262897,-0.423456,-9.5861,19.1523,1.43483,43.6785,0.999805,0.0167058,0.0105096,0.000799474,0.00870043,-0.00524059,0.00342604
0.65,0.0298596,-0.0137626,0.0025857,0.401608,-0.400878,-9.60228,19.7115,2.62684,44.3672,0.999804,0.0168044,0.0104603,0.000791665,0.00869642,-0.00519525,0.00346875
0.66,0.0251326,-0.0147413,0.00615301,0.304181,-0.387934,-9.5807,19.8116,1.34624,45.1132,0.999803,0.0169006,0.01041,0.000783806,0.00869558,-0.00516399,0.00347131
0.67,0.0282395,-0.0135475,0.00226033,0.321947,-0.345933,-9.58929,20.5168,1.00393,44.8883,0.999802,0.0169942,0.010359,0.0007759,0.00868477,-0.00519656,0.00339565
0.68,0.0266616,-0.0149603,0.00321532,0.256785,-0.39586,-9.46293,20.4516,1.8253,44.6588,0.999801,0.0170853,0.010307,0.000767946,0.00868966,-0.00520133,0.00331705
0.69,0.0271281,-0.016856,-0.00174996,0.339994,-0.395136,-9.62463,18.2326,1.62531,44.0362,0.9998,0.0171736,0.0102543,0.000759947,0.00864881,-0.00518419,0.0033746
0.7,0.0258538,-0.0145502,0.00268616,0.383607,-0.371098,-9.51503,20.3562,1.60525,43.4103,0.999799,0.0172592,0.0102007,0.000751903,0.00864176,-0.00521724,0.00341106
0.71,0.0240986,-0.0169568,0.00366371,0.292996,-0.355377,-9.60388,20.1203,1.88655,44.0044,0.999798,0.0173418,0.0101463,0.000743816,0.00863934,-0.00523531,0.00335841
0.72,0.0214925,-0.0127897,0.00102368,0.28923,-0.449893,-9.59442,20.691,2.03431,44.4636,0.999797,0.0174215,0.0100911,0.000735686,0.00871396,-0.00526575,0.0033268
0.73,0.0258822,-0.0160137,0.00123076,0.310599,-0.464596,-9.48505,19.7926,1.09292,43.6873,0.999796,0.0174981,0.010035,0.000727515,0.00873689,-0.00517234,0.00336501
0.74,0.0205602,-0.0131469,0.000998795,0.320737,-0.412246,-9.58693,18.9094,0.731195,43.9218,0.999796,0.0175715,0.00997821,0.000719304,0.00868016,-0.00514962,0.00337505
0.75,0.0213755,-0.0180822,7.61784e-05,0.333201,-0.374444,-9.48977,20.0204,0.778632,43.502,0.999795,0.0176417,0.00992061,0.000711052,0.00862002,-0.00513208,0.00343504
0.76,0.022592,-0.0171553,0.00274202,0.370092,-0.449293,-9.55558,20.0466,1.12465,43.825,0.999794,0.0177085,0.00986222,0.000702762,0.00862352,-0.00512952,0.00345663
0.77,0.0214957,-0.0183605,0.00228734,0.295557,-0.324977,-9.54875,19.1084,2.18663,44.2522,0.999794,0.017772,0.00980307,0.000694433,0.00863196,-0.00514702,0.00346242
0.78,0.0223239,-0.0157741,-0.000318056,0.31921,-0.403161,-9.51292,20.229,2.12196,44.1805,0.999793,0.0178319,0.00974317,0.000686066,0.00862969,-0.00515443,0.003478
0.79,0.0200766,-0.0164321,0.00177797,0.284552,-0.375227,-9.60905,19.8568,1.91713,44.3736,0.999793,0.0178884,0.00968252,0.000677662,0.00869366,-0.00512888,0.00354767
0.8,0.0190111,-0.0192628,0.00475674,0.345736,-0.390584,-9.59204,19.5401,1.92271,43.6472,0.999793,0.0179412,0.00962115,0.000669221,0.0086947,-0.00512217,0.00348615
0.81,0.0172806,-0.016914,0.00127628,0.369844,-0.337364,-9.43374,19.8418,1.08283,44.07,0.999792,0.0179903,0.00955905,0.000660744,0.00865884,-0.00512461,0.00350105
0.82,0.0167818,-0.0184738,-0.000414693,0.348788,-0.406888,-9.47342,19.9063,2.18103,44.3293,0.999792,0.0180357,0.00949624,0.00065223,0.00864055,-0.00510352,0.00347302
0.83,0.0158664,-0.0155106,0.00196733,0.290393,-0.409407,-9.58429,19.8902,1.2129,44.088,0.999792,0.0180774,0.00943274,0.00064368,0.00865162,-0.00509844,0.00348777
0.84,0.0153383,-0.0187718,0.000800557,0.266058,-0.313644,-9.41101,19.6611,0.900562,43.8125,0.999792,0.0181151,0.00936856,0.000635094,0.00863,-0.00508837,0.00349773
0.85,0.0129239,-0.0162706,0.00188246,0.370187,-0.428383,-9.54795,19.523,1.4159,44.7387,0.999792,0.018149,0.0093037,0.000626472,0.00863887,-0.00510088,0.00350038
0.86,0.0113364,-0.0195299,0.00204878,0.292016,-0.403373,-9.46582,19.3168,1.19592,44.727,0.999792,0.018179,0.00923819,0.000617814,0.00859352,-0.0050883,0.00349953
0.87,0.0133171,-0.0175505,0.00265241,0.282857,-0.452293,-9.44107,19.9198,1.66059,43.5021,0.999792,0.018205,0.00917204,0.00060912,0.00862763,-0.00509722,0.00351716
0.88,0.0115463,-0.0172409,0.00273635,0.33124,-0.385869,-9.47936,20.0314,1.81613,44.4,0.999792,0.018227,0.00910526,0.00060039,0.00860483,-0.0051543,0.00353596
0.89,0.0130939,-0.0205005,0.00303926,0.387671,-0.308953,-9.517,19.4125,0.579417,45.0175,0.999793,0.018245,0.00903787,0.000591623,0.00864172,-0.00510297,0.00352863
0.9,0.0102667,-0.0193567,0.00125125,0.257483,-0.410889,-9.54118,20.0402,0.105837,44.3123,0.999793,0.0182589,0.00896988,0.000582819,0.00869499,-0.00516106,0.00348425
0.91,0.00607976,-0.0183978,-0.000462701,0.353377,-0.315831,-9.53276,20.2556,1.30507,43.362,0.999793,0.0182687,0.0089013,0.000573978,0.00873426,-0.00517842,0.00347405
0.92,0.0134559,-0.0170671,-0.00145016,0.342805,-0.403231,-9.4837,19.9364,2.04257,43.2305,0.999794,0.0182744,0.00883216,0.000565099,0.00879397,-0.00518292,0.00350152
0.93,0.0077395,-0.0185275,0.00433998,0.354821,-0.453186,-9.4294,19.9024,1.14673,43.6666,0.999794,0.018276,0.00876246,0.000556182,0.00877126,-0.00519317,0.00346056
0.94,0.00551907,-0.0191151,0.00142601,0.262638,-0.440699,-9.51452,20.0295,1.59813,43.7084,0.999795,0.0182734,0.00869223,0.000547227,0.00884558,-0.00516683,0.00341392
0.95,0.00838495,-0.020024,0.00142749,0.30166,-0.467726,-9.444,20.3906,0.59665,44.5108,0.999796,0.0182667,0.00862148,0.000538232,0.00886094,-0.00524316,0.00334234
0.96,0.00413789,-0.0188312,-0.000991051,0.385364,-0.342409,-9.50513,19.9757,1.39868,43.8424,0.999797,0.0182559,0.00855022,0.000529197,0.00887346,-0.00529691,0.00334969
0.97,0.00703662,-0.0228828,0.00354607,0.249112,-0.302276,-9.49365,19.1208,1.68075,44.5703,0.999798,0.0182409,0.00847848,0.000520122,0.00887654,-0.00524851,0.0033633
0.98,0.00142362,-0.0195635,0.00490908,0.27932,-0.526101,-9.46664,20.2122,1.07449,43.5165,0.999799,0.0182217,0.00840627,0.000511005,0.00890241,-0.00522213,0.00335771
0.99,0.000371422,-0.0174152,0.00511307,0.33502,-0.475433,-9.54344,19.0266,1.74249,44.7144,0.9998,0.0181985,0.0083336,0.000501845,0.00890246,-0.00525616,0.00336069
1,0.00343104,-0.0210722,0.000497704,0.403722,-0.290489,-9.45042,19.5483,1.91309,44.5088,0.999801,0.0181711,0.0082605,0.000492643,0.00890269,-0.00525868,0.00335517
1.01,0.00170808,-0.0222116,0.00408571,0.314633,-0.418544,-9.45375,20.4138,1.03338,43.7058,0.999802,0.0181396,0.00818699,0.000483396,0.00890081,-0.00525206,0.00332263
1.02,0.000613025,-0.0180797,0.00329307,0.2843,-0.401412,-9.53333,20.0107,2.19364,44.0727,0.999803,0.018104,0.00811307,0.000474105,0.00886431,-0.005216,0.00335452
1.03,0.000858818,-0.0219078,0.00127287,0.370497,-0.355954,-9.5783,20.0258,0.847762,44.1921,0.999804,0.0180643,0.00803877,0.000464767,0.00883228,-0.00526204,0.00334717
1.04,0.00320142,-0.0203931,0.00179955,0.405423,-0.365393,-9.5397,18.8595,0.505979,44.676,0.999806,0.0180206,0.00796411,0.000455382,0.00877403,-0.00526753,0.00333135
1.05,-0.0026093,-0.0186481,0.00398769,0.327514,-0.446165,-9.37979,20.5395,1.40978,44.4721,0.999807,0.017973,0.00788911,0.000445949,0.0088033,-0.00531563,0.0033147
1.06,-0.00497346,-0.0186758,-0.00101725,0.253678,-0.381825,-9.45481,20.9956,1.9279,44.4261,0.999809,0.0179213,0.00781378,0.000436467,0.00881803,-0.00524979,0.00329618
1.07,-0.00387039,-0.0181528,0.00116285,0.218941,-0.350011,-9.49121,19.6161,1.19385,44.2278,0.99981,0.0178657,0.00773814,0.000426935,0.00876193,-0.00524447,0.00328351
1.08,-0.00324757,-0.023259,0.00109472,0.321852,-0.402323,-9.49996,19.7799,0.848968,43.5854,0.999812,0.0178063,0.00766222,0.000417351,0.0087617,-0.00524736,0.00320374
1.09,-0.00544733,-0.020333,0.000490434,0.406957,-0.444451,-9.46318,19.6436,1.17395,44.3463,0.999814,0.017743,0.00758603,0.000407714,0.00873277,-0.00522686,0.00316876
1.1,-0.00810315,-0.021438,0.00337215,0.369729,-0.471456,-9.46026,20.306,0.921154,43.0644,0.999815,0.0176759,0.00750959,0.000398024,0.00874142,-0.0052024,0.00315091
1.11,-0.00321628,-0.0188059,-0.000946235,0.300667,-0.397623,-9.48142,20.5752,0.444739,43.5394,0.999817,0.0176051,0.00743293,0.000388279,0.0087206,-0.00526312,0.00316653
1.12,-0.00699115,-0.0193874,0.000184871,0.323848,-0.503391,-9.4133,20.0172,1.77266,43.419,0.999819,0.0175306,0.00735605,0.000378477,0.0087503,-0.00529164,0.00316114
1.13,-0.00847548,-0.0204955,0.000803689,0.380624,-0.398021,-9.35964,20.2437,1.26779,44.4312,0.999821,0.0174525,0.00727899,0.000368618,0.00871912,-0.00533849,0.00315075
1.14,-0.00548726,-0.0183636,-0.000346667,0.384859,-0.505711,-9.46626,19.5861,2.40604,43.8901,0.999823,0.0173709,0.00720176,0.0003587,0.00876118,-0.00536475,0.0031766
1.15,-0.00890222,-0.0200793,0.00167472,0.340397,-0.446724,-9.45972,20.1019,2.27944,44.61,0.999825,0.0172858,0.00712439,0.000348723,0.00880225,-0.00534717,0.00312023
1.16,-0.00947839,-0.0194672,0.00228823,0.370007,-0.38729,-9.49619,19.5551,0.937412,44.4052,0.999827,0.0171973,0.00704689,0.000338684,0.00883946,-0.00535143,0.00311863
1.17,-0.00995867,-0.0220757,0.00151365,0.278985,-0.434049,-9.41636,20.3145,0.483891,43.6434,0.999829,0.0171055,0.00696928,0.000328583,0.00892038,-0.00535217,0.00314495
1.18,-0.0124663,-0.018659,-0.00207567,0.285008,-0.332687,-9.51504,20.2335,1.75368,44.385,0.999832,0.0170104,0.00689158,0.000318418,0.00894938,-0.00530087,0.00318048
1.19,-0.0115413,-0.0226219,0.00428031,0.344651,-0.444213,-9.4355,19.7738,1.48458,44.166,0.999834,0.0169121,0.00681382,0.000308188,0.00895209,-0.00533275,0.00314218
1.2,-0.0130975,-0.0186444,0.00158479,0.279022,-0.439055,-9.52274,20.9771,1.73557,43.5565,0.999836,0.0168108,0.00673602,0.000297893,0.008928,-0.00539482,0.00319431
1.21,-0.0122423,-0.0171602,-0.000663544,0.293282,-0.382986,-9.46283,20.8898,0.970872,43.3207,0.999838,0.0167065,0.00665819,0.00028753,0.00898752,-0.00536152,0.00321146
1.22,-0.0131082,-0.0202708,-0.00177781,0.299946,-0.339529,-9.46654,20.4082,1.20112,43.8375,0.999841,0.0165992,0.00658037,0.000277099,0.00903389,-0.00538808,0.00317615
1.23,-0.0135017,-0.0191311,0.000661986,0.360171,-0.401695,-9.48059,19.8157,2.36396,43.3914,0.999843,0.0164892,0.00650256,0.000266598,0.00904914,-0.00536719,0.00319936
1.24,-0.0108188,-0.02198,-0.000530198,0.347843,-0.378144,-9.42597,19.9392,2.17502,44.4029,0.999845,0.0163764,0.00642479,0.000256026,0.00911107,-0.0053553,0.00319578
1.25,-0.0124933,-0.0202259,0.00138937,0.340501,-0.31911,-9.50373,19.8318,0.00292145,44.5382,0.999848,0.016261,0.00634709,0.000245383,0.00910928,-0.00532248,0.0031715
1.26,-0.0154232,-0.0192307,0.00371426,0.304972,-0.34099,-9.39997,20.5483,0.840006,43.7626,0.99985,0.0161431,0.00626947,0.000234666,0.00916041,-0.00525733,0.00315471
1.27,-0.0160961,-0.0212987,-0.000595783,0.350587,-0.415125,-9.48295,19.9325,0.381033,44.2716,0.999852,0.0160227,0.00619195,0.000223876,0.00913295,-0.00524618,0.00313093
1.28,-0.0142687,-0.0196142,-0.00261398,0.336428,-0.306466,-9.44941,20.4771,1.5297,43.7643,0.999855,0.0159001,0.00611456,0.00021301,0.00911555,-0.00519239,0.00321964
1.29,-0.0166757,-0.0220748,0.00143216,0.232292,-0.251857,-9.54941,20.5992,0.802098,43.0615,0.999857,0.0157752,0.00603731,0.000202068,0.00911452,-0.00517189,0.00322111
1.3,-0.021112,-0.0214952,0.00252872,0.345743,-0.334694,-9.48591,19.4151,1.52005,43.8151,0.99986,0.0156483,0.00596024,0.000191049,0.00909457,-0.00519127,0.00323276
1.31,-0.0183825,-0.0204751,0.000634688,0.275115,-0.351693,-9.54843,20.3748,0.969196,43.6491,0.999862,0.0155193,0.00588335,0.000179952,0.00909199,-0.00520859,0.00327259
1.32,-0.0183766,-0.0210436,0.00182936,0.29635,-0.414106,-9.50306,19.7191,1.55667,44.5225,0.999865,0.0153885,0.00580668,0.000168777,0.00908006,-0.00518416,0.00329069
1.33,-0.0193631,-0.0174943,-0.00191306,0.284571,-0.342797,-9.44131,18.9682,1.53829,44.1291,0.999867,0.015256,0.00573024,0.000157521,0.00911012,-0.00510566,0.00326282
1.34,-0.0184803,-0.0227685,-0.000615253,0.330186,-0.359844,-9.5309,19.8067,1.60271,42.8348,0.99987,0.0151218,0.00565406,0.000146184,0.00907317,-0.00512258,0.00320786
1.35,-0.0184636,-0.0205267,0.00341693,0.380773,-0.326431,-9.46068,20.0563,0.955219,43.9735,0.999872,0.014986,0.00557815,0.000134766,0.00902631,-0.0050949,0.00327247
1.36,-0.018308,-0.0217146,0.00345911,0.316521,-0.349302,-9.46556,20.7761,1.1602,43.5153,0.999875,0.0148489,0.00550254,0.000123266,0.009067,-0.00514615,0.0032364
1.37,-0.0198545,-0.0190424,-0.00342423,0.320499,-0.36382,-9.47393,20.0373,0.882578,43.8514,0.999877,0.0147105,0.00542724,0.000111683,0.00903587,-0.00519093,0.00327498
1.38,-0.0189491,-0.0168046,0.0031794,0.367548,-0.325793,-9.53111,19.6037,1.23533,43.7284,0.99988,0.0145709,0.00535229,0.000100016,0.00902181,-0.00526084,0.00324
1.39,-0.018525,-0.0229059,0.00058395,0.233084,-0.326919,-9.4808,20.2917,1.06162,44.1274,0.999882,0.0144303,0.00527769,8.82646e-05,0.00896998,-0.00522227,0.00323844
1.4,-0.0210341,-0.0185954,0.00464477,0.314141,-0.398005,-9.44015,19.6112,0.172052,45.0376,0.999884,0.0142887,0.00520348,7.64286e-05,0.00905012,-0.00527361,0.00319307
1.41,-0.0191049,-0.0228505,0.0023783,0.281483,-0.364809,-9.48285,20.1043,1.08685,44.6935,0.999887,0.0141464,0.00512968,6.45072e-05,0.00899094,-0.00521565,0.00318356
1.42,-0.0216416,-0.0210005,0.00386108,0.383603,-0.388243,-9.62223,20.5596,1.57935,44.3792,0.999889,0.0140034,0.00505629,5.24999e-05,0.00898392,-0.00522575,0.00319567
1.43,-0.0170858,-0.0235115,-0.00287669,0.298011,-0.338421,-9.48451,20.1721,0.805884,44.0708,0.999892,0.0138598,0.00498335,4.04064e-05,0.00893218,-0.00520829,0.00324178
1.44,-0.0201829,-0.0185676,-0.000396538,0.336296,-0.371728,-9.56188,20.4044,1.27686,43.8482,0.999894,0.0137159,0.00491088,2.82261e-05,0.00894143,-0.00519831,0.00324649
1.45,-0.021096,-0.0179293,0.00244682,0.229167,-0.377189,-9.46848,20.1555,0.873077,43.4401,0.999896,0.0135716,0.00483889,1.59589e-05,0.00893324,-0.00518048,0.00330879
1.46,-0.0179578,-0.0202099,0.00118918,0.366581,-0.312878,-9.52091,20.7641,0.747464,43.6475,0.999898,0.0134272,0.00476741,3.60431e-06,0.00891414,-0.00521153,0.00328288
1.47,-0.0210877,-0.0199615,0.000315442,0.242862,-0.25283,-9.5047,19.6897,0.721432,44.3044,0.999901,0.0132827,0.00469646,-8.83781e-06,0.0089461,-0.0051803,0.00328047
1.48,-0.0231498,-0.02216,0.000723223,0.406335,-0.343338,-9.52864,20.1203,0.923107,43.3154,0.999903,0.0131383,0.00462605,-2.13677e-05,0.00891653,-0.00521,0.00331389
1.49,-0.0182063,-0.0196402,0.00209447,0.218423,-0.3687,-9.54353,20.0102,1.14075,44.2109,0.999905,0.0129941,0.00455622,-3.39854e-05,0.00890097,-0.00518572,0.00326599
1.5,-0.0187564,-0.0188425,0.000432369,0.198501,-0.375591,-9.52005,20.7553,1.56742,43.3645,0.999907,0.0128502,0.00448697,-4.66911e-05,0.00889108,-0.00517045,0.00325159
1.51,-0.019967,-0.0196737,0.000183917,0.380726,-0.390086,-9.41595,20.8482,0.464937,44.5356,0.99991,0.0127068,0.00441832,-5.94848e-05,0.00881844,-0.00515751,0.00323921
1.52,-0.0217442,-0.0193481,-1.42364e-05,0.246171,-0.374347,-9.52444,20.6413,1.09254,44.524,0.999912,0.012564,0.00435031,-7.23665e-05,0.00880234,-0.00515905,0.00320709
1.53,-0.0197156,-0.0185607,0.000918923,0.248314,-0.317964,-9.44383,19.8067,1.69231,43.5645,0.999914,0.0124219,0.00428294,-8.53362e-05,0.00878424,-0.0051139,0.00316843
1.54,-0.0180342,-0.0172561,-0.00475972,0.242015,-0.234413,-9.48717,19.6184,1.77995,43.34,0.999916,0.0122806,0.00421624,-9.83938e-05,0.00877503,-0.00510245,0.00318284
1.55,-0.0181884,-0.0176882,0.000880849,0.234141,-0.363094,-9.51729,20.3367,0.942781,43.4418,0.999918,0.0121402,0.00415022,-0.000111539,0.00873262,-0.00510251,0.00320153
1.56,-0.0171517,-0.0163802,0.00258723,0.238372,-0.297571,-9.55064,20.3276,0.127041,43.8207,0.99992,0.0120009,0.0040849,-0.000124772,0.00867995,-0.00507865,0.00316701
1.57,-0.0191132,-0.0185165,-0.00368175,0.274379,-0.276903,-9.56031,19.9383,0.693168,43.5884,0.999922,0.0118628,0.00402031,-0.000138092,0.0087075,-0.00505563,0.00318195
1.58,-0.0170744,-0.0200772,-0.000985332,0.204139,-0.283315,-9.49966,20.443,1.20044,44.2071,0.999923,0.011726,0.00395646,-0.000151499,0.00872138,-0.00504644,0.00313143
1.59,-0.0166362,-0.0175035,-0.00353217,0.303676,-0.310506,-9.54433,19.8813,1.29167,44.3777,0.999925,0.0115906,0.00389337,-0.000164993,0.00878819,-0.00505579,0.00311257
1.6,-0.0169197,-0.0163842,0.00257152,0.317049,-0.315944,-9.52166,19.861,0.633,43.6955,0.999927,0.0114567,0.00383106,-0.000178573,0.00874294,-0.00499182,0.00309454
1.61,-0.0156426,-0.0162766,0.000853369,0.439746,-0.311358,-9.56193,20.3525,0.926528,44.5153,0.999929,0.0113244,0.00376954,-0.000192239,0.00869028,-0.00494017,0.00312908
1.62,-0.018302,-0.0163904,0.00138383,0.378137,-0.285987,-9.47498,19.892,0.908731,44.0172,0.99993,0.011194,0.00370884,-0.000205991,0.00868819,-0.00491702,0.00309386
1.63,-0.0184009,-0.0170832,0.0024184,0.303997,-0.310003,-9.57366,20.3444,0.349986,43.2266,0.999932,0.0110653,0.00364896,-0.000219828,0.00873584,-0.00485377,0.00307296
1.64,-0.0156331,-0.0141118,0.00166636,0.323605,-0.172395,-9.47843,20.7735,-0.0428233,43.7811,0.999934,0.0109386,0.00358994,-0.000233749,0.00873439,-0.00489585,0.00306335
1.65,-0.0187475,-0.0177641,-7.01661e-05,0.361055,-0.207982,-9.54811,19.8302,-0.0968155,44.3904,0.999935,0.010814,0.00353178,-0.000247754,0.00869998,-0.00482964,0.00303173
1.66,-0.015249,-0.0153013,0.00201236,0.367728,-0.247913,-9.6158,19.0982,0.600625,43.9733,0.999937,0.0106916,0.0034745,-0.000261843,0.00870179,-0.00480459,0.00301543
1.67,-0.0153325,-0.0146967,-0.000446555,0.318982,-0.350907,-9.57225,20.146,0.60185,44.2193,0.999938,0.0105715,0.00341812,-0.000276014,0.00867363,-0.00481482,0.00306559
1.68,-0.0113626,-0.017406,-0.00216013,0.350099,-0.313256,-9.53432,20.3163,0.0708075,44.1956,0.99994,0.0104537,0.00336265,-0.000290268,0.00873526,-0.00484265,0.0030693
1.69,-0.012619,-0.0133774,-0.00132115,0.243767,-0.247948,-9.63176,20.0236,0.0758239,44.1163,0.999941,0.0103383,0.00330811,-0.000304603,0.00868453,-0.00484975,0.00304498
1.7,-0.0109628,-0.0164283,0.000776346,0.281917,-0.247036,-9.53966,19.6538,0.666668,44.0364,0.999942,0.0102255,0.00325452,-0.000319019,0.0086842,-0.00483884,0.00305649
1.71,-0.0115087,-0.013568,-0.000142429,0.334598,-0.229255,-9.55313,20.13,1.02863,44.0997,0.999944,0.0101154,0.00320189,-0.000333515,0.00868995,-0.00485951,0.00309418
1.72,-0.0121227,-0.0177324,-0.00136384,0.268331,-0.315392,-9.59217,20.3975,0.191392,43.5922,0.999945,0.010008,0.00315023,-0.000348091,0.00876029,-0.00485111,0.00310375
1.73,-0.00941234,-0.014542,0.00120603,0.144786,-0.327565,-9.59498,20.2814,0.36749,43.9197,0.999946,0.00990334,0.00309956,-0.000362745,0.00873625,-0.00483217,0.00310277
1.74,-0.0103527,-0.0167965,-0.00229603,0.338389,-0.317552,-9.67403,20.2644,0.835843,43.6647,0.999947,0.00980162,0.0030499,-0.000377477,0.0087039,-0.00483994,0.00314531
1.75,-0.00665422,-0.0146911,-0.000911128,0.374432,-0.305143,-9.64191,20.5994,0.878716,44.8457,0.999948,0.00970286,0.00300126,-0.000392286,0.00872429,-0.00484697,0.00316326
1.76,-0.011173,-0.0140992,0.00294445,0.322886,-0.324949,-9.5999,20.8649,0.185866,43.713,0.999949,0.00960715,0.00295365,-0.000407172,0.0087038,-0.00485829,0.00316382
1.77,-0.00880325,-0.0162621,-0.000699064,0.321217,-0.258487,-9.56908,19.9979,0.274365,43.9325,0.99995,0.00951454,0.00290708,-0.000422133,0.00871086,-0.00484653,0.00315315
1.78,-0.00907443,-0.0158652,0.000615591,0.268019,-0.20496,-9.56531,21.2194,0.674309,43.6843,0.999951,0.00942511,0.00286158,-0.000437169,0.0087054,-0.00481896,0.00321029
1.79,-0.00523941,-0.0166642,-0.00221259,0.228501,-0.214256,-9.65129,20.1361,0.562166,43.891,0.999952,0.00933892,0.00281714,-0.000452278,0.00870802,-0.00481506,0.00317422
1.8,-0.00621336,-0.0112218,0.00326592,0.386608,-0.31167,-9.68003,20.359,0.252043,44.3403,0.999953,0.00925603,0.00277379,-0.000467461,0.00866347,-0.00483372,0.00314923
1.81,-0.00549149,-0.0100743,0.00108213,0.284538,-0.237533,-9.66514,21.1528,1.01764,43.7866,0.999954,0.0091765,0.00273154,-0.000482716,0.00873198,-0.00480863,0.00316286
1.82,-0.00708982,-0.0121501,-0.000169308,0.303089,-0.222444,-9.67311,20.8877,-0.103097,43.375,0.999955,0.00910038,0.00269039,-0.000498042,0.00873054,-0.00479571,0.00321365
1.83,-0.00660641,-0.0136519,0.00226633,0.253157,-0.279933,-9.48774,20.2453,0.842832,43.5074,0.999956,0.00902772,0.00265036,-0.000513439,0.00877698,-0.00475023,0.00321896
1.84,-0.00482086,-0.0110796,-0.00212369,0.379775,-0.261505,-9.61821,21.3246,0.409442,43.3339,0.999956,0.00895857,0.00261146,-0.000528905,0.00873784,-0.0047375,0.00322045
1.85,-0.00365756,-0.0109932,-0.00173111,0.370302,-0.16259,-9.63391,20.2619,-0.0140693,43.6596,0.999957,0.00889297,0.00257371,-0.00054444,0.00865035,-0.0047598,0.00314214
1.86,-0.00367228,-0.0115495,-0.00265055,0.30369,-0.236493,-9.65548,20.0657,0.758142,44.1841,0.999958,0.00883095,0.0025371,-0.000560043,0.00865719,-0.00471599,0.00313235
1.87,-0.0048709,-0.0134545,0.000793052,0.388467,-0.215594,-9.56626,19.7205,-0.0668209,44.0159,0.999958,0.00877256,0.00250166,-0.000575713,0.00861048,-0.00473241,0.00311318
1.88,-0.00372484,-0.0112916,0.000352794,0.291414,-0.193485,-9.6045,20.4085,1.24347,43.3513,0.999959,0.00871782,0.00246739,-0.00059145,0.00861202,-0.00478366,0.00310898
1.89,-0.00166234,-0.0159869,0.00117817,0.327655,-0.267002,-9.63148,20.3518,0.829195,43.674,0.999959,0.00866675,0.00243429,-0.000607252,0.00863332,-0.00482878,0.00309578
1.9,0.00126208,-0.00960597,0.000103152,0.316754,-0.242768,-9.5944,20.8125,0.566527,43.3552,0.99996,0.00861939,0.00240239,-0.000623118,0.00863001,-0.00482612,0.0030683
1.91,0.000918563,-0.0141003,-7.5937e-05,0.287416,-0.319402,-9.64199,20.5616,1.08215,44.2057,0.99996,0.00857575,0.00237168,-0.000639049,0.00859097,-0.00480959,0.00304862
1.92,-0.00162646,-0.00823401,-0.00296319,0.352705,-0.148928,-9.67165,20.784,1.04147,44.0662,0.999961,0.00853585,0.00234218,-0.000655043,0.00854432,-0.00483371,0.00303594
1.93,0.00476385,-0.0117248,0.000578416,0.292311,-0.226512,-9.66868,21.1181,0.738405,44.2973,0.999961,0.0084997,0.00231389,-0.000671098,0.00854103,-0.00482619,0.00302383
1.94,0.00263584,-0.00907551,-0.0016645,0.264644,-0.283382,-9.62796,20.472,-0.132676,44.1575,0.999961,0.0084673,0.00228682,-0.000687216,0.00851412,-0.00485884,0.0030623
1.95,0.00273759,-0.00902797,0.0012614,0.345685,-0.202166,-9.65465,20.6699,-0.0299827,43.9476,0.999962,0.00843866,0.00226098,-0.000703394,0.00848951,-0.00486779,0.00304059
1.96,0.00374585,-0.00677556,-0.000590904,0.268304,-0.12997,-9.7385,20.8405,0.947902,43.1977,0.999962,0.00841377,0.00223637,-0.000719632,0.00851343,-0.00485139,0.00305269
1.97,0.00264089,-0.00881879,-0.00211184,0.357595,-0.246792,-9.63796,20.2448,-0.134704,43.6801,0.999962,0.00839264,0.002213,-0.00073593,0.00852193,-0.0048961,0.00299627
1.98,0.00495174,-0.00830644,-0.00224139,0.290879,-0.289259,-9.72198,19.6815,0.918949,43.714,0.999962,0.00837525,0.00219088,-0.000752286,0.00847285,-0.00495406,0.00297845
1.99,0.00429221,-0.00942246,-0.000383501,0.296535,-0.218027,-9.64224,20.5574,-0.272832,43.7411,0.999962,0.00836159,0.00217001,-0.0007687,0.00847918,-0.00494668,0.00300813
2,0.00750256,-0.00855503,-0.00296248,0.287841,-0.248535,-9.71865,20.8164,0.471751,44.2537,0.999963,0.00835165,0.00215039,-0.000785171,0.00848079,-0.00493161,0.00303374
2.01,0.00904169,-0.00774837,-0.00306922,0.398934,-0.222653,-9.69601,20.591,0.0520765,43.4288,0.999963,0.0083454,0.00213203,-0.000801699,0.00848936,-0.00496741,0.00299632
2.02,0.00881409,-0.00608025,0.000174357,0.370087,-0.196731,-9.7445,19.8877,0.458733,43.1707,0.999963,0.00834282,0.00211494,-0.000818282,0.00849421,-0.00492033,0.00299584
2.03,0.00872575,-0.00660843,-0.00393284,0.289171,-0.204895,-9.73503,20.0751,0.745768,43.9446,0.999963,0.00834388,0.00209912,-0.000834921,0.00844243,-0.00488081,0.00303261
2.04,0.0107669,-0.00827565,-0.000743549,0.321135,-0.262523,-9.75146,19.6271,1.03338,43.9556,0.999963,0.00834854,0.00208456,-0.000851615,0.00839859,-0.00488862,0.00300477
2.05,0.0128378,-0.00467638,-0.00221287,0.364036,-0.253833,-9.76298,20.8859,0.549076,44.5074,0.999963,0.00835678,0.00207129,-0.000868363,0.00832418,-0.00483052,0.00302894
2.06,0.0107281,-0.00594362,-0.00146179,0.324896,-0.181813,-9.68865,20.9649,1.07431,43.8137,0.999962,0.00836856,0.00205928,-0.000885164,0.00830597,-0.00484371,0.0030247
2.07,0.0112284,-0.00624395,-0.00183437,0.297323,-0.221381,-9.75004,20.2937,0.561117,43.5513,0.999962,0.00838382,0.00204856,-0.000902019,0.00827599,-0.00483099,0.0030684
2.08,0.00832842,-0.00560304,-0.00299311,0.16981,-0.289656,-9.78907,20.6165,0.419257,44.2909,0.999962,0.00840252,0.00203912,-0.000918926,0.00825196,-0.00486955,0.00305623
2.09,0.014266,-0.00791884,0.00454421,0.32887,-0.213307,-9.72479,20.0711,1.22357,44.8521,0.999962,0.00842461,0.00203096,-0.000935885,0.00826807,-0.00487606,0.00307969
2.1,0.0129349,-0.0077543,6.55075e-05,0.343165,-0.195051,-9.70262,20.0793,0.438774,43.9204,0.999962,0.00845004,0.00202408,-0.000952896,0.00830212,-0.00486986,0.00305528
2.11,0.0132827,-0.00505894,0.000418,0.294105,-0.263107,-9.80408,20.2886,0.27069,43.6697,0.999962,0.00847874,0.00201848,-0.000969957,0.00832921,-0.00485724,0.00303613
2.12,0.015895,-0.00545157,-0.00133992,0.350175,-0.22859,-9.75072,20.4186,0.33838,44.0266,0.999961,0.00851066,0.00201417,-0.000987069,0.00833188,-0.00492053,0.00306729
2.13,0.0134919,-0.00438248,-0.000988102,0.293565,-0.360777,-9.75878,20.3148,0.828295,44.0812,0.999961,0.00854572,0.00201114,-0.00100423,0.00836643,-0.00491176,0.00306143
2.14,0.0142704,-0.00589649,0.00033547,0.3751,-0.214635,-9.75758,20.317,-0.304694,43.7913,0.999961,0.00858387,0.00200939,-0.00102144,0.00832486,-0.00493713,0.00311997
2.15,0.0165111,-0.00404897,-0.00126433,0.355897,-0.207141,-9.81637,20.1784,0.707489,43.4295,0.99996,0.00862503,0.00200892,-0.00103871,0.00832307,-0.00497383,0.00315191
2.16,0.0192089,-0.00452948,0.00329418,0.339289,-0.219721,-9.65845,19.9381,0.284227,43.3958,0.99996,0.00866912,0.00200973,-0.00105602,0.0083106,-0.00496242,0.00314151
2.17,0.0192209,-0.00345701,0.000893519,0.343402,-0.271183,-9.81403,20.846,1.18457,44.0451,0.999959,0.00871606,0.00201181,-0.00107338,0.00834616,-0.0050117,0.00314689
2.18,0.0175133,-0.00711153,-0.0019337,0.309638,-0.199639,-9.79323,20.2199,0.673211,43.8841,0.999959,0.00876578,0.00201517,-0.00109078,0.00841486,-0.00498409,0.00311821
2.19,0.0193547,-0.00166352,-0.000856061,0.303273,-0.309361,-9.78306,19.9693,0.436248,44.076,0.999958,0.00881819,0.0020198,-0.00110824,0.00837208,-0.00492048,0.00309749
2.2,0.018748,-0.00272914,-0.000940775,0.316759,-0.296539,-9.74657,20.0825,0.634351,43.1779,0.999958,0.0088732,0.0020257,-0.00112574,0.00840484,-0.00489277,0.00304135
2.21,0.0200917,-0.000662033,-0.000114718,0.41291,-0.256413,-9.84902,20.2854,0.038349,44.8807,0.999957,0.00893072,0.00203287,-0.00114329,0.00842192,-0.00486202,0.00300259
2.22,0.0205353,-0.00258904,-0.00111697,0.270105,-0.196401,-9.81239,19.4327,1.02537,43.9225,0.999957,0.00899066,0.00204129,-0.00116089,0.00849161,-0.00486776,0.00287932
2.23,0.0212092,-0.00447388,0.000611425,0.36064,-0.269714,-9.87369,19.9714,0.893498,43.5692,0.999956,0.00905293,0.00205097,-0.00117853,0.00845534,-0.00491746,0.00292549
2.24,0.0227991,-0.00303606,-1.27939e-05,0.303596,-0.339462,-9.75252,20.3472,0.152131,44.4953,0.999956,0.00911741,0.0020619,-0.00119622,0.0084887,-0.00491557,0.00292969
2.25,0.020291,-0.00402915,0.0014163,0.36494,-0.286222,-9.72697,20.5193,0.43281,45.2071,0.999955,0.00918402,0.00207407,-0.00121395,0.00844004,-0.00491579,0.00285213
2.26,0.0210614,-0.00244621,0.00136881,0.304733,-0.225582,-9.84042,20.9782,1.38839,43.8302,0.999954,0.00925265,0.00208748,-0.00123174,0.00842649,-0.00483398,0.00290581
2.27,0.0197133,-0.00158981,-0.00116208,0.32054,-0.221455,-9.79407,19.8774,0.940093,44.1284,0.999954,0.00932319,0.00210213,-0.00124956,0.00842462,-0.00479265,0.00289808
2.28,0.0222663,-0.00244449,0.00162439,0.314104,-0.274826,-9.84925,20.0175,1.672,43.9934,0.999953,0.00939554,0.002118,-0.00126743,0.00846153,-0.00471129,0.00289942
2.29,0.0262874,-0.000571827,0.000161039,0.277882,-0.296724,-9.82102,20.4115,0.66012,43.9588,0.999952,0.00946959,0.00213509,-0.00128535,0.00851144,-0.00464973,0.0028681
2.3,0.0249643,0.00024218,-0.00102152,0.349975,-0.332783,-9.91941,20.1049,0.669617,44.1339,0.999951,0.00954522,0.0021534,-0.00130331,0.00849738,-0.00463733,0.00288906
2.31,0.0227259,0.000451432,0.000710579,0.347037,-0.269828,-9.80906,20.828,1.24491,43.083,0.99995,0.00962233,0.00217291,-0.00132131,0.00845221,-0.00457871,0.00285018
2.32,0.0269273,0.000107164,-0.000189868,0.330388,-0.325585,-9.9155,20.7971,1.21764,43.1149,0.99995,0.00970079,0.00219361,-0.00133936,0.00844312,-0.00456611,0.00285694
2.33,0.0229575,0.00125421,0.00277879,0.407985,-0.324141,-9.89757,19.5769,1.30345,43.6918,0.999949,0.00978049,0.00221551,-0.00135745,0.00837468,-0.00459551,0.00283784
2.34,0.0256224,0.00158044,0.000266012,0.276442,-0.27582,-9.87394,20.1274,0.911836,43.0306,0.999948,0.00986131,0.00223858,-0.00137558,0.00839583,-0.00460447,0.00288976
2.35,0.0231442,0.00360728,-0.0027073,0.388683,-0.353521,-9.92041,20.7676,0.433857,43.8315,0.999947,0.00994314,0.00226282,-0.00139376,0.00845578,-0.00459954,0.00288432
2.36,0.0251024,0.00283891,-0.000659897,0.242837,-0.346283,-9.89921,20.1269,1.24642,43.2756,0.999946,0.0100258,0.00228822,-0.00141198,0.00841838,-0.00456508,0.00284745
2.37,0.0253083,-0.000409209,0.00105823,0.390129,-0.317378,-9.76529,20.8224,0.563437,44.3677,0.999945,0.0101093,0.00231477,-0.00143024,0.00840138,-0.00455613,0.00283199
2.38,0.0263976,0.00233528,0.000315892,0.3458,-0.406574,-9.90774,20.7809,0.447808,42.9657,0.999944,0.0101934,0.00234247,-0.00144854,0.00841172,-0.0045512,0.00282642
2.39,0.0266197,-0.00114195,-0.000424056,0.329719,-0.361956,-9.96169,20.5424,0.37251,43.1901,0.999943,0.010278,0.00237129,-0.00146688,0.00845967,-0.00453822,0.00276367
2.4,0.0258582,-0.000426308,0.0024038,0.432468,-0.206948,-9.87327,20.3528,1.60251,43.5322,0.999942,0.010363,0.00240122,-0.00148526,0.00847802,-0.00456968,0.00275967
2.41,0.0247265,0.00329621,0.00118232,0.364212,-0.315901,-9.97478,20.7579,0.778464,44.2748,0.999941,0.0104483,0.00243227,-0.00150369,0.00846933,-0.00454909,0.00276262
2.42,0.024206,0.00159906,0.000380463,0.352116,-0.291041,-9.85597,21.1848,0.394333,44.1365,0.99994,0.0105337,0.00246441,-0.00152215,0.00854502,-0.00453418,0.00275069
2.43,0.0280769,0.0006961,0.000571012,0.382965,-0.291778,-9.91861,19.7773,0.911765,43.4589,0.999939,0.0106191,0.00249763,-0.00154065,0.00857243,-0.00452903,0.00279035
2.44,0.0256297,0.00440874,-0.000128412,0.333089,-0.311485,-9.8773,20.287,1.10303,43.5475,0.999938,0.0107043,0.00253192,-0.00155919,0.0085826,-0.00449937,0.00273041
2.45,0.0265419,0.00597906,-0.000722236,0.462393,-0.296354,-10.0086,19.8884,0.746753,44.5814,0.999937,0.0107894,0.00256727,-0.00157777,0.00854789,-0.00447745,0.00272843
2.46,0.0283206,0.000997748,-0.000486926,0.474729,-0.33508,-9.96852,20.4993,1.24624,44.4723,0.999936,0.0108741,0.00260366,-0.00159638,0.0085404,-0.00444823,0.00269595
2.47,0.0271941,0.00427348,-0.00156528,0.402621,-0.313664,-9.955,21.0637,0.381394,43.3587,0.999935,0.0109582,0.00264108,-0.00161503,0.00852568,-0.00448688,0.00273295
2.48,0.0227097,0.00321423,0.000818728,0.37774,-0.281836,-9.90384,20.5415,0.2459,44.1079,0.999934,0.0110418,0.00267951,-0.00163372,0.00846263,-0.00450399,0.00271668
2.49,0.0238369,0.00371078,-0.000454519,0.340735,-0.347678,-9.88939,21.2075,0.476854,44.512,0.999933,0.0111246,0.00271895,-0.00165245,0.00845864,-0.00453426,0.00270642
2.5,0.0235532,0.00141749,-0.000343812,0.374483,-0.271828,-10.037,20.6807,0.395901,43.7269,0.999932,0.0112065,0.00275937,-0.0016712,0.00841566,-0.00456766,0.00272897
2.51,0.0221476,0.00554376,-0.00255225,0.390475,-0.333262,-9.96285,20.7379,0.625109,44.5439,0.999931,0.0112874,0.00280077,-0.00168999,0.00834103,-0.00453743,0.00271458
2.52,0.0238665,0.00229186,-0.00341208,0.396263,-0.270603,-9.94891,19.017,0.518128,43.1005,0.99993,0.0113672,0.00284312,-0.00170882,0.00836535,-0.00453441,0.0027856
2.53,0.0263918,0.00360569,-0.00195258,0.38321,-0.381384,-9.86151,20.2714,0.996461,43.5055,0.999929,0.0114457,0.00288642,-0.00172768,0.00840539,-0.00446784,0.00285497
2.54,0.0227268,0.00704537,-0.000304564,0.314679,-0.364821,-9.97665,20.8732,0.700834,43.3478,0.999928,0.0115228,0.00293064,-0.00174656,0.00838984,-0.00446453,0.00284775
2.55,0.0287579,0.00374272,0.00194149,0.363679,-0.276086,-9.91811,19.6645,0.834067,43.9066,0.999927,0.0115985,0.00297577,-0.00176548,0.00836577,-0.00442841,0.00288447
2.56,0.0233621,0.00213353,0.000486819,0.418292,-0.264644,-9.89813,19.8599,1.01388,43.2752,0.999926,0.0116726,0.00302179,-0.00178443,0.0083099,-0.00440737,0.00289005
2.57,0.0220715,0.00353942,-0.00341126,0.480895,-0.2975,-9.94654,19.5289,0.605839,43.7713,0.999925,0.0117449,0.00306869,-0.00180341,0.00832991,-0.00439838,0.00292096
2.58,0.0227413,0.00775096,-2.5949e-06,0.420376,-0.295543,-9.99163,20.6802,0.156868,43.7103,0.999924,0.0118153,0.00311645,-0.00182241,0.00836051,-0.00437306,0.00293676
2.59,0.0226842,0.00543625,-0.00121034,0.335365,-0.306198,-9.9226,19.6079,0.782766,43.6327,0.999923,0.0118838,0.00316505,-0.00184145,0.00839009,-0.00440589,0.00297089
2.6,0.0208659,0.00387603,-0.00307221,0.312643,-0.282384,-10.0119,21.3054,0.838757,43.744,0.999922,0.0119502,0.00321448,-0.0018605,0.00840402,-0.00442114,0.00301757
2.61,0.0225204,0.00760752,-0.00139318,0.431374,-0.25983,-9.92615,20.6151,1.21318,44.4108,0.999921,0.0120145,0.00326471,-0.00187959,0.00836777,-0.00442943,0.00305575
2.62,0.0191026,0.00489984,-0.00159338,0.370618,-0.317006,-9.92123,20.9295,1.26476,43.0817,0.99992,0.0120764,0.00331573,-0.00189869,0.00834024,-0.00444428,0.00307498
2.63,0.0204214,0.00600454,-0.00376222,0.266191,-0.332955,-10.0332,20.0834,0.636129,43.1508,0.999919,0.0121359,0.00336753,-0.00191782,0.00831645,-0.00438443,0.00310828
2.64,0.021189,0.00439439,-0.000637157,0.354824,-0.253872,-10.0962,19.5001,1.98415,43.7649,0.999918,0.0121928,0.00342007,-0.00193697,0.00834584,-0.00437845,0.00305372
2.65,0.0192859,0.00434659,0.000989686,0.33377,-0.384037,-10.0827,20.4128,0.58537,43.1987,0.999917,0.0122472,0.00347335,-0.00195614,0.00835266,-0.00437243,0.00303479
2.66,0.0144644,0.00580254,0.000350322,0.330337,-0.389414,-9.99947,19.9157,1.3393,44.4146,0.999916,0.0122988,0.00352734,-0.00197533,0.00832416,-0.00438623,0.00304801
2.67,0.0163662,0.0063577,-0.00126776,0.39907,-0.337311,-9.96294,19.8933,1.30686,43.807,0.999915,0.0123476,0.00358202,-0.00199453,0.00840947,-0.00441127,0.00303006
2.68,0.0182264,0.00561527,-0.00238558,0.454474,-0.383081,-10.0446,20.9548,1.81619,43.8057,0.999915,0.0123935,0.00363739,-0.00201375,0.00843207,-0.00443479,0.00304622
2.69,0.0166891,0.00950962,-0.00102066,0.388014,-0.386908,-9.99464,20.0276,0.901006,43.9294,0.999914,0.0124364,0.0036934,-0.00203299,0.00845462,-0.00445211,0.00307116
2.7,0.0146906,0.00438243,0.000947979,0.350208,-0.318153,-9.98415,20.4509,0.632506,43.1244,0.999913,0.0124761,0.00375006,-0.00205224,0.00840375,-0.00442574,0.00308844
2.71,0.0163156,0.00828058,0.00064361,0.388859,-0.330145,-10.0128,20.2849,0.56123,44.268,0.999912,0.0125127,0.00380732,-0.0020715,0.00842396,-0.00442705,0.00307251
2.72,0.0146219,0.00518461,-0.00123604,0.380985,-0.323122,-10.0346,20.6822,0.824304,43.7926,0.999912,0.012546,0.00386519,-0.00209078,0.00846694,-0.00440817,0.00311958
2.73,0.0138644,0.00760678,-0.000274156,0.508337,-0.374638,-10.0631,20.7972,0.985827,43.5918,0.999911,0.0125759,0.00392363,-0.00211006,0.00849725,-0.0044741,0.0031003
2.74,0.0145451,0.0061541,0.00036253,0.394238,-0.371434,-10.0443,19.7277,1.34201,44.1649,0.99991,0.0126023,0.00398262,-0.00212935,0.00856446,-0.00448986,0.00308686
2.75,0.0177962,0.00649694,-0.00095227,0.394779,-0.478905,-9.95846,19.8345,0.342948,43.3028,0.99991,0.0126253,0.00404214,-0.00214864,0.00854845,-0.00445407,0.00307153
2.76,0.0169151,0.00501306,-0.00102628,0.436852,-0.346377,-10.0194,20.719,0.843602,43.2989,0.999909,0.0126446,0.00410218,-0.00216794,0.00856947,-0.00441777,0.00301616
2.77,0.0133254,0.00578715,0.0012688,0.459541,-0.347154,-10.0212,20.5527,0.736053,44.3225,0.999909,0.0126603,0.00416271,-0.00218725,0.00858084,-0.00443837,0.00303199
2.78,0.00953815,0.00932231,0.0011735,0.417624,-0.26613,-10.0405,20.3588,1.33399,44.7335,0.999908,0.0126723,0.00422371,-0.00220655,0.00860796,-0.00443788,0.00308865
2.79,0.00767069,0.00551797,-0.000662846,0.44701,-0.337257,-9.97512,20.6929,1.98763,43.9098,0.999908,0.0126804,0.00428516,-0.00222586,0.00859557,-0.00444254,0.00311229
2.8,0.0107341,0.00529214,-0.00104017,0.416024,-0.380917,-9.8783,20.7094,0.861135,43.9233,0.999908,0.0126847,0.00434703,-0.00224516,0.00859751,-0.00444688,0.00315523
2.81,0.00754472,0.0065072,2.39158e-05,0.470871,-0.312391,-10.0483,19.9461,1.38397,44.3338,0.999907,0.0126851,0.00440931,-0.00226446,0.00858864,-0.00442316,0.00314626
2.82,0.00731576,0.00965569,-0.00233841,0.44562,-0.405062,-10.1132,20.4113,2.05676,44.2153,0.999907,0.0126816,0.00447197,-0.00228376,0.00859172,-0.00438496,0.00310138
2.83,0.00890605,0.0096036,-0.00150552,0.431896,-0.307872,-10.0741,20.3445,1.4061,44.2637,0.999907,0.012674,0.00453499,-0.00230305,0.00856682,-0.00434988,0.00307886
2.84,0.00788922,0.0103835,0.00112885,0.346449,-0.341594,-10.0928,19.8884,0.746814,43.9073,0.999907,0.0126624,0.00459835,-0.00232233,0.00859406,-0.00438245,0.00308395
2.85,0.00820584,0.00875841,-0.00124637,0.375246,-0.319283,-10.0278,19.7756,0.949157,43.3887,0.999906,0.0126466,0.00466202,-0.00234161,0.00858268,-0.00442722,0.00313879
2.86,0.00628532,0.0111375,0.00169712,0.432932,-0.37604,-10.0775,20.8745,0.669018,44.3196,0.999906,0.0126268,0.00472599,-0.00236087,0.00859362,-0.00443578,0.00312383
2.87,0.00040278,0.00959942,-0.00202931,0.490447,-0.361056,-10.0967,19.8263,1.80022,44.5306,0.999906,0.0126027,0.00479023,-0.00238012,0.00858222,-0.00453803,0.00309743
2.88,0.00345898,0.00703398,-0.00390151,0.434546,-0.300167,-9.98733,19.3793,0.472173,43.0788,0.999906,0.0125745,0.00485472,-0.00239936,0.0085812,-0.00456306,0.00312554
2.89,-8.15138e-05,0.00956294,-0.00033525,0.424599,-0.323006,-9.98804,20.268,0.986032,43.4279,0.999906,0.0125421,0.00491944,-0.00241858,0.00865242,-0.00454886,0.00318609
2.9,-0.00151384,0.00766204,-0.0003369,0.45203,-0.222735,-10.0189,19.3167,0.540942,44.2416,0.999906,0.0125054,0.00498436,-0.00243778,0.00866096,-0.00449583,0.00322236
2.91,-0.000543784,0.00666467,-0.00414182,0.377664,-0.405363,-10.0284,20.2167,1.09159,44.4143,0.999907,0.0124644,0.00504946,-0.00245696,0.00872814,-0.00447772,0.0032011
2.92,-0.00215421,0.00806352,0.0029744,0.476174,-0.357761,-10.0598,20.8117,1.20598,44.3904,0.999907,0.0124192,0.00511472,-0.00247613,0.00875076,-0.0044418,0.00324853
2.93,0.00219229,0.00920965,-0.000939779,0.503244,-0.333065,-10.1054,19.5486,0.433842,43.5609,0.999907,0.0123696,0.00518011,-0.00249527,0.00872546,-0.00440919,0.00320367
2.94,0.00148066,0.0100008,-0.00241535,0.370583,-0.430752,-10.0248,19.8431,1.7279,43.9701,0.999907,0.0123158,0.00524562,-0.00251439,0.00872625,-0.00438286,0.00322124
2.95,0.00139502,0.00936782,-0.000812066,0.433965,-0.361304,-10.0498,19.2349,1.23897,44.0541,0.999908,0.0122577,0.00531121,-0.00253348,0.00875346,-0.0043948,0.00323072
2.96,-0.00544277,0.0107263,-0.00399585,0.476734,-0.383137,-10.028,20.2269,1.0427,44.3619,0.999908,0.0121953,0.00537687,-0.00255255,0.0088195,-0.00439211,0.00323665
2.97,-0.00443966,0.00858275,0.000453392,0.461072,-0.348676,-10.0094,20.0614,0.723296,43.4612,0.999908,0.0121286,0.00544258,-0.00257159,0.00878638,-0.0043356,0.00322256
2.98,-0.00631749,0.0109473,-0.00190587,0.440543,-0.351724,-10.0826,20.4804,0.558672,43.5977,0.999909,0.0120576,0.0055083,-0.0025906,0.00878842,-0.00432971,0.0032036
2.99,-0.00539964,0.00473087,-0.000276354,0.490141,-0.399547,-10.1447,19.683,0.673638,43.4252,0.999909,0.0119824,0.00557402,-0.00260958,0.008838,-0.00435415,0.00318612
3,-0.00729561,0.0114128,-0.00141176,0.39825,-0.327751,-10.023,20.2304,1.4093,43.9895,0.99991,0.011903,0.00563972,-0.00262852,0.00882935,-0.00437326,0.00318138
3.01,-0.00933021,0.00842268,0.000237959,0.398163,-0.313467,-10.0604,20.324,1.52015,44.1807,0.99991,0.0118193,0.00570537,-0.00264744,0.00880939,-0.00431343,0.00322757
3.02,-0.0111809,0.00701219,-0.00377428,0.455148,-0.233172,-10.0323,20.2099,1.05839,44.3267,0.999911,0.0117314,0.00577094,-0.00266632,0.00877848,-0.00433567,0.00325327
3.03,-0.00998594,0.00612764,-0.00221156,0.49277,-0.387538,-10.0721,19.212,0.94271,43.3482,0.999912,0.0116394,0.00583643,-0.00268516,0.00877862,-0.00440775,0.0032287
3.04,-0.00828217,0.00730678,-0.00138419,0.340349,-0.33576,-9.95552,20.363,0.818092,44.1272,0.999912,0.0115432,0.00590179,-0.00270397,0.00875244,-0.00436896,0.00319041
3.05,-0.0109618,0.0125168,-0.00138265,0.549013,-0.341265,-9.9755,20.8855,1.05455,44.533,0.999913,0.011443,0.00596701,-0.00272274,0.00866368,-0.00441439,0.00311083
3.06,-0.0112917,0.0122696,-0.00474112,0.412731,-0.29608,-10.1239,19.8264,1.08905,44.7054,0.999914,0.0113386,0.00603207,-0.00274147,0.0086271,-0.00444278,0.00304261
3.07,-0.0153739,0.00728978,-0.000421245,0.47018,-0.347001,-10.0661,21.1064,1.01539,44.4081,0.999915,0.0112303,0.00609695,-0.00276017,0.00864401,-0.0044052,0.00297051
3.08,-0.011977,0.0121177,-0.00180054,0.41993,-0.286816,-10.1055,19.6011,1.50116,44.5671,0.999915,0.0111181,0.00616162,-0.00277882,0.00860902,-0.0044083,0.00301662
3.09,-0.0134382,0.00994353,-0.00301321,0.416688,-0.25194,-9.92995,20.1445,0.569995,44.5184,0.999916,0.0110019,0.00622605,-0.00279742,0.0086707,-0.00441823,0.00307483
3.1,-0.013381,0.00849137,-2.87365e-06,0.430144,-0.385531,-10.0813,19.9766,-0.00581177,43.7612,0.999917,0.0108819,0.00629023,-0.00281599,0.00855875,-0.00446223,0.00307508
3.11,-0.0149298,0.00887012,0.000334922,0.426297,-0.24278,-9.91522,19.6483,0.580804,43.8533,0.999918,0.0107582,0.00635414,-0.00283451,0.00852544,-0.00450129,0.00309904
3.12,-0.0185547,0.00614793,-0.00123299,0.478641,-0.286966,-10.0231,20.0231,1.37695,43.8045,0.999919,0.0106307,0.00641774,-0.00285299,0.0084247,-0.00447488,0.00314108
3.13,-0.0191866,0.00994541,-0.00136664,0.555533,-0.358487,-10.0994,19.5536,1.00912,44.2952,0.99992,0.0104995,0.00648103,-0.00287142,0.00839858,-0.00445585,0.00309993
3.14,-0.0167953,0.00682318,-0.000582239,0.437089,-0.364122,-10.0928,20.1773,1.15685,43.8963,0.999921,0.0103648,0.00654397,-0.00288981,0.00845265,-0.00448252,0.00311174
3.15,-0.0212409,0.00912486,-0.000244817,0.585723,-0.321788,-10.0567,18.8022,1.28433,44.0781,0.999922,0.0102266,0.00660655,-0.00290815,0.00847126,-0.00443641,0.00309917
3.16,-0.0213616,0.0115072,-0.00143389,0.522113,-0.293246,-10.0437,20.4676,1.94377,44.2467,0.999923,0.010085,0.00666874,-0.00292645,0.0085044,-0.00442057,0.0030936
3.17,-0.0220459,0.00858618,-0.00276271,0.45123,-0.304344,-9.93278,20.8683,0.526775,44.3579,0.999924,0.00993996,0.00673053,-0.00294469,0.00847509,-0.00434781,0.00315959
3.18,-0.0199012,0.0070409,-3.37033e-05,0.460864,-0.249763,-9.90945,19.9478,0.203724,44.7978,0.999925,0.00979171,0.00679188,-0.00296289,0.00846775,-0.00434691,0.0031467
3.19,-0.0236518,0.00748024,-0.000897714,0.505175,-0.22719,-9.98582,20.1199,1.09407,43.4081,0.999926,0.00964029,0.00685278,-0.00298104,0.00845295,-0.0043175,0.00315421
3.2,-0.0220945,0.00854354,-1.20152e-05,0.592878,-0.282937,-9.98856,20.2685,0.542304,43.7596,0.999927,0.00948579,0.00691321,-0.00299915,0.0084658,-0.00429041,0.00314659
3.21,-0.0245348,0.0103978,-0.00195693,0.562801,-0.269248,-10.0903,20.3201,0.85985,43.8069,0.999928,0.0093283,0.00697314,-0.0030172,0.008456,-0.00426083,0.0031196
3.22,-0.025358,0.00595239,-0.00156217,0.46549,-0.253037,-9.99791,20.3824,1.20202,44.6565,0.999929,0.00916791,0.00703256,-0.00303521,0.00843814,-0.00433034,0.00312236
3.23,-0.0251684,0.0068125,-0.00161454,0.500017,-0.336693,-9.95786,20.4963,1.31658,43.6891,0.99993,0.00900473,0.00709145,-0.00305317,0.00846479,-0.00430479,0.0031399
3.24,-0.0221717,0.0057427,-0.000357164,0.504513,-0.244412,-9.99177,20.2135,0.965643,43.3326,0.999931,0.00883886,0.00714977,-0.00307107,0.0084992,-0.00429375,0.00318355
3.25,-0.0252302,0.00242105,-0.000213369,0.444537,-0.274443,-9.92495,20.4271,-0.680195,43.823,0.999932,0.0086704,0.00720752,-0.00308894,0.00846193,-0.0043024,0.00316016
3.26,-0.0219923,0.00534538,-0.00238969,0.401647,-0.313236,-9.95151,19.0293,0.11919,43.7118,0.999933,0.00849946,0.00726467,-0.00310675,0.00840628,-0.00427343,0.00317195
3.27,-0.0277733,0.00825389,-0.00152609,0.451581,-0.152452,-10.1132,19.9458,0.775872,43.2945,0.999934,0.00832615,0.00732121,-0.00312451,0.00839156,-0.00426731,0.00318538
3.28,-0.026918,0.00693346,0.000429358,0.494483,-0.283995,-9.94568,19.8032,0.613945,43.5634,0.999935,0.00815057,0.00737711,-0.00314223,0.0083956,-0.00429609,0.00320879
3.29,-0.0248543,0.00688771,-0.000422395,0.433112,-0.243184,-10.0392,19.1761,-0.195591,43.3051,0.999936,0.00797284,0.00743235,-0.0031599,0.00842064,-0.0043838,0.00318598
3.3,-0.0259694,0.00498785,-0.002123,0.477368,-0.258087,-9.98454,19.6143,0.418452,43.1603,0.999937,0.00779308,0.00748692,-0.00317752,0.00842998,-0.00434478,0.00319907
3.31,-0.0282231,0.005659,0.00163172,0.533494,-0.208362,-9.96106,19.5401,0.66322,43.5709,0.999937,0.0076114,0.00754079,-0.0031951,0.00847273,-0.00428748,0.00319881
3.32,-0.0268908,0.00775424,0.000885473,0.541323,-0.177461,-9.98149,19.7105,0.880204,43.8523,0.999938,0.00742792,0.00759395,-0.00321263,0.00847087,-0.00434251,0.00318979
3.33,-0.0278194,0.00685404,-0.00213342,0.491745,-0.375326,-9.98693,19.6533,1.34183,44.3771,0.999939,0.00724276,0.00764637,-0.00323011,0.00848373,-0.00435458,0.00318409
3.34,-0.0262327,0.0082834,-0.00108925,0.565822,-0.241679,-9.94531,19.1657,0.294104,44.2343,0.99994,0.00705605,0.00769805,-0.00324755,0.00851851,-0.00437013,0.00317196
3.35,-0.0268693,0.00753194,-0.000763077,0.444543,-0.191027,-9.89447,20.3175,0.37843,44.0763,0.999941,0.0068679,0.00774895,-0.00326495,0.00852405,-0.00435706,0.00318449
3.36,-0.0322448,0.00532524,0.0014024,0.488362,-0.209532,-9.94233,20.258,0.391084,43.6856,0.999942,0.00667844,0.00779907,-0.0032823,0.00853522,-0.00434511,0.00316981
3.37,-0.0294752,0.00493013,0.000666169,0.502904,-0.310021,-10.001,19.9913,0.333231,44.5541,0.999943,0.0064878,0.00784838,-0.00329961,0.0085245,-0.00436546,0.00326097
3.38,-0.0297637,0.00750937,-0.00198924,0.514629,-0.265243,-9.92378,18.8173,-0.197104,44.4703,0.999943,0.0062961,0.00789687,-0.00331688,0.00860503,-0.00435818,0.00326732
3.39,-0.0311117,0.00395257,-0.00144391,0.472059,-0.19584,-9.97618,19.0518,0.406848,43.405,0.999944,0.00610347,0.00794453,-0.00333411,0.00861101,-0.00436079,0.00329473
3.4,-0.031049,0.00535362,-0.00283804,0.528281,-0.09915,-9.9757,19.4117,0.212773,43.7915,0.999945,0.00591005,0.00799132,-0.0033513,0.00858302,-0.00432974,0.00325443
3.41,-0.0306224,0.00691247,0.00107866,0.501555,-0.256464,-9.93533,19.6734,1.02871,43.7529,0.999946,0.00571595,0.00803725,-0.00336845,0.00854677,-0.00427146,0.00324515
3.42,-0.0292105,0.00378297,-0.000854507,0.486048,-0.222141,-9.97517,20.6645,0.0369284,44.2941,0.999946,0.00552131,0.00808229,-0.00338556,0.00855118,-0.00428202,0.00329954
3.43,-0.0289014,0.00321387,-0.00147421,0.56127,-0.202754,-9.97674,20.8731,0.821236,43.1771,0.999947,0.00532626,0.00812642,-0.00340263,0.00854201,-0.00419845,0.00333488
3.44,-0.0306953,0.00414555,0.00154869,0.566799,-0.249422,-9.93429,19.33,1.50652,44.8174,0.999948,0.00513094,0.00816963,-0.00341968,0.00853326,-0.00415141,0.00334757
3.45,-0.0279121,0.00441069,0.00160921,0.543545,-0.224984,-10.0445,20.0772,0.815054,43.9528,0.999948,0.00493546,0.00821191,-0.00343668,0.00850136,-0.00418205,0.00329834
3.46,-0.0295404,0.00436923,-0.00016486,0.575701,-0.176237,-9.88934,20.5566,0.793515,44.3345,0.999949,0.00473996,0.00825324,-0.00345366,0.00851591,-0.0042519,0.00335903
3.47,-0.0316252,0.00343229,0.000246548,0.628212,-0.12067,-9.87789,19.8774,-0.146655,43.5145,0.999949,0.00454458,0.00829361,-0.0034706,0.00850965,-0.00428102,0.00340785
3.48,-0.0302842,0.00495816,0.000923168,0.546742,-0.138945,-9.979,20.3679,1.49909,44.9629,0.99995,0.00434945,0.00833299,-0.00348751,0.00853205,-0.00425005,0.00341763
3.49,-0.0301284,0.00248911,-0.00108445,0.498902,-0.115428,-9.89379,20.3436,0.360491,43.8922,0.99995,0.00415468,0.00837139,-0.0035044,0.00853435,-0.00427048,0.00341509
3.5,-0.0290226,0.00165716,-0.000283614,0.587125,-0.110189,-9.93827,19.5503,-0.22187,44.0298,0.999951,0.00396042,0.00840878,-0.00352125,0.00850089,-0.00428259,0.00344078
3.51,-0.031393,0.00123896,-0.00065404,0.462659,-0.269288,-9.99758,19.4909,0.381143,44.0943,0.999951,0.0037668,0.00844515,-0.00353809,0.00847939,-0.00423833,0.00346112
3.52,-0.0292128,0.00451934,0.000472306,0.556162,-0.208412,-9.89783,19.3529,1.09411,43.8767,0.999951,0.00357393,0.00848049,-0.00355489,0.00847391,-0.0043102,0.00345897
3.53,-0.0304017,0.000509083,-0.000416267,0.536737,-0.280671,-9.92717,19.8766,-0.0224885,44.3642,0.999952,0.00338196,0.00851479,-0.00357168,0.00853348,-0.00434803,0.00346473
3.54,-0.0303243,0.000222827,7.3013e-05,0.559148,-0.132398,-9.96062,19.8604,-0.792793,44.0957,0.999952,0.003191,0.00854802,-0.00358844,0.00857038,-0.00433415,0.00348775
3.55,-0.02919,0.00117933,0.0011187,0.48148,-0.110265,-9.89224,19.0456,0.920451,43.6766,0.999952,0.00300119,0.0085802,-0.00360518,0.00853913,-0.00433143,0.00345699
3.56,-0.0296176,-0.00336185,0.0018891,0.463332,-0.0632529,-9.84258,20.0469,0.385998,44.2118,0.999952,0.00281264,0.00861129,-0.0036219,0.00847106,-0.00428582,0.00345137
3.57,-0.0274469,-0.00239513,0.00154859,0.519849,-0.147686,-9.9331,20.0072,-0.355473,44.1361,0.999953,0.00262549,0.00864129,-0.00363861,0.0085296,-0.00428193,0.00341239
3.58,-0.0264303,0.00116439,-0.00140317,0.538089,-0.0522413,-9.83521,20.5462,0.669771,43.9808,0.999953,0.00243985,0.00867019,-0.0036553,0.00850419,-0.00424887,0.00349947
3.59,-0.0290302,0.00316221,0.00025157,0.551192,-0.161019,-9.89502,19.8371,0.894526,44.601,0.999953,0.00225584,0.00869799,-0.00367198,0.0084454,-0.00430212,0.0035187
3.6,-0.0264748,0.00204693,-0.00253102,0.561792,-0.134854,-9.88928,19.9085,0.0979206,43.8072,0.999953,0.00207359,0.00872466,-0.00368864,0.00845602,-0.00428856,0.00354481
3.61,-0.02893,-0.000495275,8.28287e-05,0.60933,-0.134145,-9.87769,19.4669,0.40686,44.6171,0.999953,0.0018932,0.0087502,-0.00370529,0.00845772,-0.00427007,0.00357534
3.62,-0.0273098,0.00230769,0.000461551,0.577488,-0.154292,-9.91515,19.4171,0.479883,43.315,0.999953,0.0017148,0.0087746,-0.00372194,0.00844718,-0.00424821,0.00355663
3.63,-0.0253471,0.000167623,0.00156018,0.510501,-0.171213,-9.81293,20.0082,-1.2277,44.0576,0.999953,0.0015385,0.00879785,-0.00373857,0.00839257,-0.00426772,0.0035396
3.64,-0.0260777,0.000752238,0.000885556,0.534111,-0.0427989,-9.83469,19.365,0.150055,44.0019,0.999953,0.00136441,0.00881995,-0.0037552,0.00838578,-0.004211,0.00351857
3.65,-0.0273882,0.00240946,0.000149521,0.509202,-0.114951,-9.82254,19.7641,-0.236309,44.3327,0.999953,0.00119264,0.00884089,-0.00377182,0.00843222,-0.00425279,0.00351043
3.66,-0.0265439,0.00231978,-0.00362257,0.538759,-0.121662,-9.80617,20.0871,0.391029,44.9919,0.999953,0.00102329,0.00886065,-0.00378844,0.00842605,-0.00425796,0.00343044
3.67,-0.0245142,0.00333847,0.000589323,0.522574,-0.0562339,-9.89476,19.5942,0.949109,43.6659,0.999953,0.000856473,0.00887924,-0.00380505,0.00844333,-0.00433951,0.00338593
3.68,-0.0249303,-0.00126429,-0.000203205,0.521747,-0.0130657,-9.88239,20.5359,0.660919,43.5387,0.999953,0.000692285,0.00889664,-0.00382167,0.00845672,-0.00431942,0.00341253
3.69,-0.0240264,-0.00474548,0.000903683,0.534601,-0.131493,-9.81796,19.2621,0.233087,43.5283,0.999953,0.000530828,0.00891286,-0.00383828,0.00851991,-0.00432435,0.00339218
3.7,-0.0240626,-0.0032481,-0.000111086,0.605808,-0.0701351,-9.78807,19.6256,-0.217578,44.535,0.999953,0.000372198,0.00892787,-0.0038549,0.00850241,-0.00434265,0.00340385
3.71,-0.0247931,-0.00289816,0.00206335,0.580901,-0.0383325,-9.92283,20.4962,-0.171724,44.6926,0.999953,0.000216488,0.00894169,-0.00387152,0.0084432,-0.00433141,0.0033569
3.72,-0.0242863,-0.000550641,-0.00152676,0.553646,-0.119968,-9.94617,20.0719,0.529379,43.808,0.999952,6.37889e-05,0.0089543,-0.00388814,0.00844702,-0.00432325,0.00334063
3.73,-0.0230001,-0.0046368,0.00137649,0.497789,-0.0548129,-9.83166,18.9386,0.125279,44.551,0.999952,-8.58113e-05,0.0089657,-0.00390477,0.00848694,-0.00430864,0.00333702
3.74,-0.0206527,-0.00348548,0.00102571,0.517931,-0.00526442,-9.82028,19.9849,-0.247816,44.4118,0.999952,-0.000232228,0.00897588,-0.0039214,0.00848787,-0.00427957,0.00334126
3.75,-0.0202194,-0.00336668,0.00208648,0.521919,-0.154177,-9.80077,19.6313,-0.365433,44.5711,0.999952,-0.00037538,0.00898484,-0.00393804,0.00839881,-0.00423828,0.00337894
3.76,-0.0173376,-0.002112,-0.000295835,0.515503,-0.103378,-9.75373,20.274,-0.389319,43.9183,0.999952,-0.000515188,0.00899259,-0.00395469,0.00842464,-0.00423998,0.00339223
3.77,-0.0176123,-0.00498051,-0.00076353,0.526843,0.0172066,-9.83502,20.3039,0.537867,43.3844,0.999951,-0.000651577,0.00899911,-0.00397135,0.00843813,-0.0042031,0.00333664
3.78,-0.0178699,-0.00331318,0.00240128,0.525175,-0.0172463,-9.8243,20.1293,-0.674362,43.9202,0.999951,-0.000784477,0.0090044,-0.00398802,0.00844946,-0.00423406,0.00336581
3.79,-0.0159128,-0.00291391,0.000443251,0.534558,-0.129038,-9.76041,19.5661,0.421419,43.9712,0.999951,-0.000913817,0.00900847,-0.0040047,0.00841939,-0.00425087,0.00341703
3.8,-0.0169425,-0.0044997,0.00226148,0.493954,-0.110732,-9.7508,20.1249,-0.248127,44.7345,0.999951,-0.00103953,0.0090113,-0.00402139,0.00844536,-0.00422738,0.0033995
3.81,-0.0184979,-0.00390779,-0.00018944,0.514712,-0.0825882,-9.8067,19.3148,-0.481673,44.6961,0.999951,-0.00116157,0.00901291,-0.00403809,0.00850845,-0.00422187,0.00339653
3.82,-0.0146221,-0.00301248,0.000629153,0.572203,-0.0542701,-9.82417,20.3858,-0.24594,43.6498,0.99995,-0.00127986,0.00901329,-0.00405481,0.0085566,-0.00422247,0.00339034
3.83,-0.0130523,-0.00489562,-0.00281941,0.635408,-0.11497,-9.71063,19.6163,-0.120322,43.1969,0.99995,-0.00139435,0.00901243,-0.00407154,0.00857658,-0.00419465,0.00339936
3.84,-0.0172823,-0.00539115,-0.00116201,0.603888,-0.114146,-9.70354,19.0375,0.178751,43.8493,0.99995,-0.00150499,0.00901034,-0.00408829,0.00855865,-0.00416938,0.00341823
3.85,-0.0135598,-0.00631014,-0.00449515,0.560784,-0.00472645,-9.83205,19.6096,-0.854256,42.9951,0.99995,-0.00161175,0.00900703,-0.00410505,0.00854651,-0.0041468,0.00342273
3.86,-0.0101719,-0.00682412,-0.000202851,0.557148,-0.09445,-9.78632,19.7984,0.376351,43.1712,0.99995,-0.00171456,0.00900248,-0.00412183,0.00856653,-0.00413592,0.00347318
3.87,-0.00965726,-0.00794869,0.00046038,0.542184,0.0265029,-9.65437,20.4549,-0.307042,43.7062,0.999949,-0.00181341,0.00899671,-0.00413862,0.0085494,-0.00417486,0.00346531
3.88,-0.00907231,-0.0061831,-0.00326616,0.510562,-0.0781679,-9.74607,19.0718,-0.106228,43.4836,0.999949,-0.00190824,0.00898971,-0.00415543,0.00857836,-0.00417502,0.00347996
3.89,-0.00815937,-0.00542884,0.00148786,0.641612,-0.0431214,-9.74715,19.2035,-0.0594363,44.0622,0.999949,-0.00199903,0.00898149,-0.00417226,0.0086032,-0.00419259,0.0034786
3.9,-0.00958624,-0.00523577,-0.000665161,0.51279,-0.0888823,-9.76385,19.9497,0.439123,44.6543,0.999949,-0.00208575,0.00897205,-0.0041891,0.00858137,-0.00420194,0.00345434
3.91,-0.00893405,-0.00389716,-0.000445158,0.664407,-0.0565016,-9.71986,19.7453,-0.764273,44.2581,0.999949,-0.00216838,0.0089614,-0.00420597,0.00854685,-0.00418945,0.00337654
3.92,-0.00741205,-0.00810217,0.00143641,0.465127,-0.082507,-9.67324,19.9888,-0.130994,43.9208,0.999949,-0.0022469,0.00894953,-0.00422284,0.00847218,-0.00413501,0.00342802
3.93,-0.00663852,-0.00910652,0.00132285,0.53127,-0.0503729,-9.69527,19.7686,-0.377641,44.0382,0.999948,-0.00232129,0.00893646,-0.00423974,0.00849522,-0.00419292,0.00343897
3.94,-0.00305313,-0.00450326,0.00055561,0.55051,-0.0122478,-9.71084,18.5368,-0.0856665,44.3837,0.999948,-0.00239154,0.00892218,-0.00425665,0.00853812,-0.00421699,0.00347671
3.95,-0.00546521,-0.00554138,-0.00052788,0.521841,0.00211694,-9.6906,19.8864,0.376636,45.0181,0.999948,-0.00245765,0.00890671,-0.00427358,0.00854057,-0.00422007,0.00347114
3.96,-0.00442486,-0.00770647,-0.00105342,0.482423,-0.0114847,-9.69394,20.3344,-0.91873,43.3605,0.999948,-0.00251961,0.00889004,-0.00429053,0.00853924,-0.00422307,0.00345978
3.97,-0.0034592,-0.00264978,0.00115126,0.429506,-0.029751,-9.73315,19.6878,-0.549746,44.0737,0.999948,-0.00257743,0.00887219,-0.00430749,0.00845724,-0.00425549,0.00340266
3.98,-0.00226229,-0.00951151,-0.00217292,0.534778,-0.0902043,-9.69219,18.969,0.312275,45.0892,0.999948,-0.0026311,0.00885316,-0.00432447,0.00849553,-0.00425071,0.00338216
3.99,0.000719022,-0.00752015,0.00113769,0.583136,0.03308,-9.64005,19.0809,0.343691,43.9528,0.999948,-0.00268063,0.00883295,-0.00434146,0.00846911,-0.00424688,0.00343299
4,-0.000484553,-0.00516459,-0.000232082,0.558044,0.0202022,-9.6261,20.5684,-0.63957,44.032,0.999948,-0.00272605,0.00881158,-0.00435847,0.00846554,-0.00420581,0.0034097
4.01,0.00173299,-0.010747,-0.00176338,0.506712,-0.00570216,-9.74525,19.4813,0.517944,43.7706,0.999948,-0.00276736,0.00878905,-0.00437549,0.0085015,-0.00417725,0.00346826
4.02,0.00441486,-0.00876174,0.00057983,0.55687,-0.113755,-9.66715,20.6146,0.437899,44.559,0.999948,-0.00280459,0.00876537,-0.00439253,0.00847355,-0.00420841,0.00346922
4.03,0.00202792,-0.0087489,0.000376468,0.496103,-0.107195,-9.67672,19.7631,0.241608,43.4321,0.999948,-0.00283775,0.00874055,-0.00440958,0.00844092,-0.00417859,0.00349471
4.04,0.00272006,-0.00948955,4.75775e-05,0.499064,-0.0960209,-9.61095,19.1018,-0.805638,44.1441,0.999948,-0.00286689,0.0087146,-0.00442665,0.00844954,-0.0041657,0.00346404
4.05,0.00378187,-0.013949,0.00135146,0.484344,-0.0456251,-9.71923,19.8344,0.0179928,44.2257,0.999948,-0.00289203,0.00868752,-0.00444372,0.0084626,-0.00412923,0.00341846
4.06,0.00686803,-0.0099623,0.00108061,0.62622,-0.0211249,-9.60449,19.4002,-0.280111,43.7747,0.999948,-0.0029132,0.00865933,-0.00446081,0.00842821,-0.00403516,0.00341433
4.07,0.0085203,-0.0104487,-0.00176522,0.566892,0.0437084,-9.62055,20.3192,0.180312,44.1553,0.999948,-0.00293046,0.00863004,-0.00447791,0.00837156,-0.00400965,0.0034437
4.08,0.00746048,-0.0103905,0.00171032,0.531374,-0.0468981,-9.62699,19.4936,-0.213413,44.44,0.999949,-0.00294383,0.00859965,-0.00449502,0.00836726,-0.00392043,0.0034289
4.09,0.0078905,-0.00947442,0.00465264,0.500668,-0.0135605,-9.68775,19.8639,-0.181611,42.8672,0.999949,-0.00295338,0.00856819,-0.00451213,0.00833393,-0.00390694,0.0034203
4.1,0.00449529,-0.0117457,0.000209989,0.491757,-0.0155285,-9.60241,20.1795,-0.734669,44.2369,0.999949,-0.00295914,0.00853565,-0.00452926,0.00829473,-0.00386318,0.00348542
4.11,0.0101441,-0.0105969,-0.00283828,0.48182,-0.0066984,-9.67416,20.0425,-0.233388,44.4982,0.999949,-0.00296118,0.00850205,-0.00454638,0.00831588,-0.00388796,0.00344858
4.12,0.00673517,-0.0101238,-0.00325011,0.511692,-0.12369,-9.67936,20.0862,-0.552212,44.5432,0.999949,-0.00295956,0.00846741,-0.00456352,0.00832857,-0.00385773,0.00346366
4.13,0.00840945,-0.0126218,-0.00273714,0.526659,-0.0317744,-9.69009,20.0066,-0.206743,43.3665,0.99995,-0.00295433,0.00843173,-0.00458066,0.008314,-0.00383113,0.00335164
4.14,0.0130371,-0.00618849,0.000129736,0.507442,-0.0128103,-9.56672,19.5911,0.639599,43.8952,0.99995,-0.00294556,0.00839503,-0.0045978,0.0082463,-0.00378164,0.00334318
4.15,0.0130724,-0.0129547,-0.00141142,0.546274,0.0567119,-9.64595,20.0783,-0.224273,43.5824,0.99995,-0.00293331,0.00835733,-0.00461494,0.00824692,-0.00381145,0.00332037
4.16,0.00904451,-0.0111911,0.000539777,0.465577,-0.0564688,-9.66565,19.842,0.858156,44.1803,0.99995,-0.00291767,0.00831863,-0.00463208,0.008259,-0.00383487,0.00330409
4.17,0.0118103,-0.0132062,0.00089297,0.46971,-0.0528217,-9.63674,19.5431,-0.405934,44.0969,0.999951,-0.00289871,0.00827894,-0.00464922,0.00821666,-0.00380099,0.00332994
4.18,0.0145807,-0.0126244,-0.00129481,0.710399,-0.122313,-9.6043,20.2906,0.117341,43.0672,0.999951,-0.0028765,0.0082383,-0.00466636,0.00822471,-0.00382129,0.0033228
4.19,0.0127896,-0.00949798,0.0011943,0.508198,-0.00909396,-9.62925,19.7564,-0.543929,43.8372,0.999951,-0.00285112,0.0081967,-0.00468349,0.00819663,-0.00375847,0.00327735
4.2,0.0133586,-0.0109544,-0.00230415,0.500766,-0.141486,-9.64865,19.8931,-1.12442,43.5982,0.999952,-0.00282267,0.00815416,-0.00470062,0.00815461,-0.00371634,0.00323303
4.21,0.0118989,-0.0136788,0.000321064,0.528367,0.0355342,-9.53063,19.8697,-0.72347,45.1328,0.999952,-0.00279122,0.0081107,-0.00471774,0.00817007,-0.00369692,0.00328468
4.22,0.0160094,-0.0101518,-0.000487979,0.605687,0.0207145,-9.59206,20.1632,-0.527036,43.9718,0.999952,-0.00275687,0.00806634,-0.00473485,0.00816194,-0.00373026,0.00326925
4.23,0.0146722,-0.0131207,0.00119428,0.545706,0.0116408,-9.55978,19.5322,-0.0547655,44.267,0.999953,-0.0027197,0.00802108,-0.00475195,0.00820109,-0.00373812,0.00331273
4.24,0.0130524,-0.0159243,0.00124027,0.544206,-0.0952022,-9.58944,20.7212,0.00141193,44.2657,0.999953,-0.00267983,0.00797495,-0.00476904,0.00816,-0.00376638,0.00337573
4.25,0.0136216,-0.0152299,-0.000620707,0.434723,-0.033209,-9.51297,20.1101,0.584695,44.6693,0.999954,-0.00263733,0.00792797,-0.00478612,0.00818645,-0.00379615,0.00343226
4.26,0.0194046,-0.0128529,0.00278252,0.381927,-0.102821,-9.59453,20.911,0.000335324,44.0233,0.999954,-0.00259232,0.00788014,-0.00480318,0.00809356,-0.00379926,0.00345066
4.27,0.0166712,-0.0130057,-0.00225325,0.505003,-0.0943447,-9.51376,19.5103,-1.21127,44.0138,0.999954,-0.00254489,0.00783149,-0.00482023,0.00806788,-0.0037696,0.00339919
4.28,0.0163526,-0.0150435,0.000979321,0.527272,-0.0560454,-9.5933,19.3544,-0.467115,43.7864,0.999955,-0.00249515,0.00778203,-0.00483726,0.00808511,-0.00374516,0.00337884
4.29,0.0150071,-0.0139291,-0.00117728,0.470115,-0.0728388,-9.52836,19.4469,0.14755,44.2538,0.999955,-0.00244321,0.00773179,-0.00485426,0.00801285,-0.00372955,0.0033346
4.3,0.0173533,-0.0157473,0.00229342,0.540826,-0.110959,-9.57212,19.7686,-0.831161,43.965,0.999956,-0.00238917,0.00768078,-0.00487125,0.0080117,-0.00375238,0.00334335
4.31,0.0207448,-0.012817,0.000129784,0.513931,-0.0479861,-9.54888,19.8382,-0.102937,44.0218,0.999956,-0.00233315,0.00762901,-0.00488822,0.00802343,-0.00372488,0.00330056
4.32,0.0189142,-0.0154758,0.00313037,0.52999,-0.00695382,-9.5544,19.5189,0.0447703,44.9702,0.999957,-0.00227526,0.00757651,-0.00490516,0.00803006,-0.00375614,0.00336612
4.33,0.0204974,-0.0168406,0.00151583,0.485626,0.00954378,-9.56703,19.8552,0.0329879,43.6846,0.999957,-0.00221561,0.0075233,-0.00492208,0.00799651,-0.00378027,0.00335091
4.34,0.0208784,-0.0133857,-0.00112397,0.552546,0.0156278,-9.58947,19.7366,-0.011093,43.4872,0.999958,-0.00215432,0.00746939,-0.00493897,0.00806212,-0.0037363,0.00326304
4.35,0.0154906,-0.0136201,-0.000962896,0.467413,0.00167985,-9.49842,19.952,-0.344155,43.5474,0.999958,-0.00209151,0.00741481,-0.00495583,0.00802865,-0.00375345,0.00332813
4.36,0.0249219,-0.0200112,0.000438132,0.517587,-0.0906024,-9.68948,20.1457,0.135102,43.3134,0.999958,-0.00202729,0.00735957,-0.00497266,0.00800226,-0.003766,0.00339962
4.37,0.0240892,-0.0137236,-0.00102056,0.575163,0.0396736,-9.57271,19.4933,-0.490583,44.2216,0.999959,-0.00196178,0.00730369,-0.00498945,0.00797957,-0.00373039,0.00342425
4.38,0.0218144,-0.0184858,0.00096767,0.475251,-0.0692811,-9.564,20.1868,-0.554925,43.8216,0.999959,-0.0018951,0.00724719,-0.00500622,0.00797456,-0.00371634,0.00343288
4.39,0.0212685,-0.0173857,-0.000407416,0.523765,-0.161189,-9.57454,20.0889,0.101056,43.76,0.99996,-0.00182738,0.0071901,-0.00502295,0.00801718,-0.00367591,0.00343994
4.4,0.0203884,-0.0144608,0.00127494,0.586302,-0.001009,-9.55557,19.3318,0.340906,43.4653,0.99996,-0.00175874,0.00713244,-0.00503964,0.00801083,-0.00366304,0.00348913
4.41,0.0240174,-0.0152797,-0.00318113,0.537041,-0.0559307,-9.48503,20.0698,-0.91055,43.7731,0.999961,-0.0016893,0.00707422,-0.0050563,0.0079503,-0.0036803,0.00344512
4.42,0.0202805,-0.0145037,-0.00200569,0.568754,-0.00581494,-9.46441,19.817,0.181271,44.5912,0.999961,-0.00161918,0.00701546,-0.00507292,0.00795942,-0.00367818,0.00347956
4.43,0.0211753,-0.0123172,-0.000632629,0.428416,-0.0878157,-9.49036,19.2159,-0.971498,43.3869,0.999962,-0.00154851,0.00695619,-0.0050895,0.00799775,-0.00364296,0.00350367
4.44,0.0221063,-0.0150475,0.000526504,0.439171,-0.073192,-9.50779,19.5985,0.272064,44.0287,0.999962,-0.00147742,0.00689643,-0.00510603,0.00799494,-0.00356066,0.0035596
4.45,0.0200466,-0.0141426,0.00304119,0.49082,-0.00796095,-9.55682,20.5553,0.286564,44.7323,0.999963,-0.00140602,0.0068362,-0.00512253,0.00797489,-0.00355582,0.00353417
4.46,0.0233912,-0.0180646,0.00413957,0.490671,-0.199956,-9.48563,21.2571,0.301616,43.5145,0.999963,-0.00133444,0.00677551,-0.00513898,0.00795532,-0.00362787,0.00354443
4.47,0.0214503,-0.019602,0.000937229,0.559839,-0.0498763,-9.48393,19.0149,-0.22036,44.0742,0.999963,-0.00126282,0.00671441,-0.00515538,0.00800358,-0.00365203,0.00352774
4.48,0.0212655,-0.0184714,0.00270957,0.558665,-0.105559,-9.54336,20.6583,-0.00987267,44.1649,0.999964,-0.00119126,0.00665289,-0.00517174,0.00798544,-0.00365448,0.00352757
4.49,0.0234577,-0.0183738,0.00100463,0.443196,-0.0180724,-9.58554,20.0755,0.354685,43.443,0.999964,-0.0011199,0.00659099,-0.00518805,0.00804494,-0.00362908,0.00350444
4.5,0.0224136,-0.0171991,-0.00116194,0.506686,-0.00414673,-9.39431,18.8718,0.155057,44.1821,0.999965,-0.00104885,0.00652873,-0.00520431,0.00805111,-0.00358953,0.00350634
4.51,0.02118,-0.0154968,0.00142468,0.497997,-0.0497145,-9.59623,19.5623,0.771087,44.2845,0.999965,-0.000978254,0.00646613,-0.00522052,0.00812804,-0.0036232,0.0034911
4.52,0.0241742,-0.0165935,0.00120093,0.372088,-0.141307,-9.55367,20.1821,-0.437636,44.3106,0.999965,-0.000908218,0.00640321,-0.00523668,0.00816037,-0.00358531,0.00357628
4.53,0.0214093,-0.0163768,0.000738479,0.401089,-0.0702505,-9.51497,19.7173,0.278248,43.4929,0.999966,-0.000838869,0.00633999,-0.00525279,0.00814575,-0.00359969,0.0035726
4.54,0.0210143,-0.0164537,-0.0013282,0.500724,-0.0885819,-9.55606,20.9889,-0.366718,43.2503,0.999966,-0.000770327,0.00627651,-0.00526884,0.00811254,-0.0036123,0.00358203
4.55,0.0229794,-0.016665,0.00167247,0.546623,0.0283087,-9.45402,19.9905,-0.826234,43.7152,0.999966,-0.000702711,0.00621277,-0.00528484,0.00803973,-0.00369199,0.00361433
4.56,0.0209732,-0.015308,-0.000310016,0.451263,-0.0292908,-9.50879,20.1756,0.634967,43.1561,0.999967,-0.000636141,0.00614881,-0.00530079,0.00803619,-0.0036648,0.00364815
4.57,0.0208118,-0.0170034,0.00487175,0.456011,-0.142658,-9.50473,19.9583,1.58497,43.9215,0.999967,-0.000570733,0.00608464,-0.00531668,0.00802962,-0.00361802,0.00366019
4.58,0.0189543,-0.0129989,0.000149672,0.465324,0.00843662,-9.53937,20.248,0.615136,43.1633,0.999968,-0.000506603,0.00602029,-0.00533252,0.00796214,-0.00366399,0.00369763
4.59,0.0192564,-0.0169506,0.000752309,0.517897,-0.129809,-9.48331,19.7339,0.271417,44.2953,0.999968,-0.000443866,0.00595578,-0.0053483,0.00793457,-0.00373933,0.00374076
4.6,0.0212378,-0.0139714,0.000638795,0.476247,-0.17607,-9.50034,19.6948,0.12129,43.5882,0.999968,-0.000382634,0.00589114,-0.00536402,0.00796222,-0.00367798,0.003744
4.61,0.0202051,-0.0156566,0.000264272,0.352366,-0.122374,-9.39196,20.1042,-0.403737,44.0237,0.999969,-0.000323018,0.00582638,-0.00537969,0.00794623,-0.00365297,0.00378463
4.62,0.0198452,-0.0154677,-0.000615051,0.431831,-0.0399079,-9.48168,20.341,-0.191119,43.4112,0.999969,-0.000265127,0.00576153,-0.00539529,0.00794006,-0.0036425,0.00379292
4.63,0.0196705,-0.0175319,0.0010899,0.427151,-0.0733898,-9.49978,19.4048,0.324996,44.0964,0.999969,-0.000209068,0.00569661,-0.00541084,0.00791742,-0.00364544,0.00371386
4.64,0.0191002,-0.0166782,0.00275859,0.491652,-0.0380606,-9.46556,18.9679,0.222115,43.8674,0.999969,-0.000154947,0.00563165,-0.00542633,0.00792402,-0.00360411,0.00371414
4.65,0.0158527,-0.0198744,0.00184622,0.469465,-0.0747276,-9.54334,19.7775,-0.230531,43.554,0.99997,-0.000102864,0.00556667,-0.00544175,0.00797086,-0.00366,0.00376388
4.66,0.0207289,-0.0198766,0.000733388,0.538619,-0.0288683,-9.55374,20.5241,-0.531653,43.8262,0.99997,-5.2922e-05,0.00550169,-0.00545712,0.00796088,-0.00364943,0.0037589
4.67,0.0179129,-0.0160288,-5.3391e-05,0.562506,-0.0738444,-9.50762,19.8052,-1.56402,43.794,0.99997,-5.21795e-06,0.00543673,-0.00547243,0.00794845,-0.00370335,0.00378603
4.68,0.0187045,-0.0156261,0.00122215,0.570009,-0.00252496,-9.53838,20.0534,0.74585,44.3382,0.999971,4.01524e-05,0.00537182,-0.00548767,0.00793816,-0.00365994,0.00376449
4.69,0.0155964,-0.0153702,-0.000931444,0.485872,-0.112062,-9.51345,20.114,0.49336,44.4088,0.999971,8.30961e-05,0.00530698,-0.00550286,0.00793652,-0.00366169,0.00378793
4.7,0.0133745,-0.0154552,7.03984e-05,0.437405,-0.0990791,-9.53224,21.047,0.503139,43.7092,0.999971,0.000123523,0.00524224,-0.00551798,0.00788977,-0.00366255,0.00377108
4.71,0.016102,-0.0182204,0.00143605,0.456207,-0.059781,-9.56424,19.9445,0.794705,43.7769,0.999971,0.000161345,0.00517761,-0.00553304,0.00788775,-0.00370269,0.00382087
4.72,0.01585,-0.0172756,-0.000499512,0.473467,-0.0657691,-9.43538,20.7902,-0.0405637,44.2753,0.999972,0.000196479,0.00511311,-0.00554804,0.00785094,-0.00370039,0.00379554
4.73,0.0133518,-0.0153805,0.00131749,0.445331,-0.0553384,-9.56152,19.6238,0.572504,44.0521,0.999972,0.000228842,0.00504878,-0.00556298,0.00785239,-0.00363552,0.00383635
4.74,0.0153308,-0.0159814,0.00150854,0.534267,-0.0346035,-9.59268,20.4429,0.414159,44.7538,0.999972,0.000258356,0.00498463,-0.00557786,0.00792454,-0.00359418,0.00386994
4.75,0.0108346,-0.0180339,0.00146887,0.519203,-0.00652148,-9.51069,19.2275,-0.239639,44.1954,0.999972,0.000284945,0.00492069,-0.00559267,0.00787761,-0.00347304,0.00389135
4.76,0.0132232,-0.0131143,0.0025671,0.506221,-0.171738,-9.49159,19.0518,-0.210159,44.0738,0.999972,0.000308537,0.00485697,-0.00560743,0.00792348,-0.00348534,0.00386883
4.77,0.00719522,-0.0190276,0.00325617,0.504329,-0.0514103,-9.57913,20.3446,-0.24684,45.0337,0.999973,0.000329063,0.00479351,-0.00562212,0.00797168,-0.00344831,0.00385241
4.78,0.0107354,-0.0161357,0.00263562,0.394873,-0.0156711,-9.53138,20.4455,0.554413,44.5808,0.999973,0.000346458,0.00473031,-0.00563675,0.00794365,-0.00347223,0.0038274
4.79,0.00875185,-0.0151873,0.00122863,0.444244,-0.0478459,-9.39823,19.9567,0.169355,43.9797,0.999973,0.000360658,0.00466741,-0.00565132,0.00799613,-0.00350486,0.0038504
4.8,0.0121838,-0.0166489,0.000961887,0.495838,-0.0219104,-9.50645,21.0016,-0.552598,44.0323,0.999973,0.000371606,0.00460483,-0.00566583,0.0079484,-0.00348888,0.00385527
4.81,0.00875759,-0.0161618,0.00148339,0.488299,-0.0796531,-9.64908,20.3777,-0.117951,43.7813,0.999973,0.000379246,0.00454258,-0.00568027,0.00796637,-0.0034931,0.00386066
4.82,0.00859368,-0.0141299,0.00300506,0.408384,-0.112109,-9.43183,20.0329,-0.317136,44.5377,0.999974,0.000383526,0.0044807,-0.00569466,0.00798893,-0.00348042,0.00385833
4.83,0.00762264,-0.0156982,-0.0010712,0.499449,-0.135657,-9.50015,20.5024,0.112848,44.2728,0.999974,0.000384399,0.00441919,-0.00570898,0.0080149,-0.00348463,0.00387182
4.84,0.00566786,-0.0151128,0.00226731,0.451097,-0.0713093,-9.55486,19.9228,0.752989,44.4603,0.999974,0.00038182,0.00435809,-0.00572325,0.00805527,-0.00346002,0.00384076
4.85,0.00443358,-0.0154019,0.000615859,0.404356,-0.0871507,-9.4456,20.5822,0.22074,44.7895,0.999974,0.000375748,0.00429741,-0.00573745,0.00806535,-0.00351328,0.00390396
4.86,0.00582039,-0.0124512,0.00284472,0.402508,-0.0571953,-9.46454,20.5049,0.414437,43.3212,0.999974,0.000366147,0.00423717,-0.0057516,0.00805145,-0.00347435,0.00389013
4.87,0.00419377,-0.0161856,0.00334237,0.467359,-0.05351,-9.51328,20.7231,0.845008,43.8914,0.999975,0.000352983,0.0041774,-0.00576568,0.00806529,-0.00357349,0.00376971
4.88,0.00304109,-0.0137731,-0.00139339,0.508785,-0.0831155,-9.46493,19.9617,0.0186088,43.9305,0.999975,0.000336228,0.00411811,-0.00577971,0.00807109,-0.00352977,0.00369927
4.89,0.00335316,-0.0172344,0.00205099,0.507397,-0.111774,-9.47822,20.34,-0.193295,44.2286,0.999975,0.000315856,0.00405933,-0.00579367,0.00803339,-0.00347881,0.00369689
4.9,0.00357992,-0.0170272,-0.00207793,0.491509,-0.0392965,-9.54734,20.0074,-0.257581,43.7714,0.999975,0.000291847,0.00400107,-0.00580758,0.0080071,-0.00349543,0.00373089
4.91,0.00586857,-0.0147181,0.00119805,0.41206,-0.0336357,-9.51966,19.4779,-0.401447,43.7377,0.999975,0.000264181,0.00394335,-0.00582143,0.0080485,-0.00345656,0.00375699
4.92,0.00108875,-0.0140057,0.000281526,0.430342,-0.0605556,-9.57288,20.1946,0.406443,43.9913,0.999975,0.000232847,0.00388621,-0.00583522,0.00799507,-0.00345077,0.00377147
4.93,-0.000127109,-0.0148004,0.00152682,0.492395,-0.00949542,-9.55135,19.9485,0.190887,44.2434,0.999976,0.000197834,0.00382964,-0.00584896,0.00799737,-0.00340492,0.00378289
4.94,-0.00184373,-0.01536,-0.000961957,0.4468,-0.134017,-9.59782,20.1318,-0.0240692,44.1869,0.999976,0.000159138,0.00377368,-0.00586263,0.008032,-0.00335023,0.00380515
4.95,0.0015383,-0.0149409,0.00157028,0.435013,-0.0968581,-9.59211,20.2975,-0.014318,43.8719,0.999976,0.000116756,0.00371834,-0.00587626,0.00804288,-0.0033632,0.00381617
4.96,-0.00403117,-0.0134553,-0.0020894,0.39535,-0.0245512,-9.55296,20.5754,-0.452391,44.1147,0.999976,7.06911e-05,0.00366364,-0.00588982,0.00809513,-0.00340626,0.00378746
4.97,-0.00205638,-0.0140965,-0.00129997,0.415885,-0.133181,-9.54957,20.2499,-0.539097,43.4978,0.999976,2.095e-05,0.0036096,-0.00590333,0.00810552,-0.00339901,0.00375716
4.98,-0.00239128,-0.0169008,0.000349439,0.434034,-0.030111,-9.47999,20.2663,0.600021,44.0423,0.999976,-3.2457e-05,0.00355624,-0.00591678,0.00812353,-0.00342665,0.00380576
4.99,-0.00411799,-0.0142495,0.00278963,0.464954,-0.0826119,-9.51795,20.821,0.297013,44.1199,0.999976,-8.95155e-05,0.00350357,-0.00593017,0.00809875,-0.00352054,0.00375976
5,-0.00455067,-0.0125613,-0.0015621,0.478191,-0.0465066,-9.58233,20.3473,1.25011,43.5652,0.999976,-0.000150207,0.00345161,-0.00594352,0.00809524,-0.00350473,0.00377043
5.01,-0.00421141,-0.0158008,0.00155061,0.479023,-0.118696,-9.48647,19.8533,0.31565,42.6459,0.999976,-0.000214509,0.00340038,-0.0059568,0.00813049,-0.00352748,0.00379513
5.02,-0.00438203,-0.0138712,-0.000578737,0.429498,0.0076662,-9.58104,21.3176,-0.837877,44.4643,0.999977,-0.000282395,0.0033499,-0.00597003,0.00817021,-0.00356535,0.003847
5.03,-0.00853141,-0.0140965,-0.000689133,0.41388,-0.158777,-9.58061,20.7637,-0.468466,42.7048,0.999977,-0.000353836,0.00330019,-0.00598321,0.00818481,-0.00351985,0.00383084
5.04,-0.0102179,-0.0115277,0.000333018,0.343417,-0.0760691,-9.62733,19.7432,-0.0786698,43.7684,0.999977,-0.000428796,0.00325125,-0.00599634,0.00820066,-0.00352098,0.00384216
5.05,-0.00945005,-0.0115875,0.000194806,0.498662,-0.0752525,-9.59225,20.2735,0.259388,43.3985,0.999977,-0.000507239,0.0032031,-0.00600941,0.00826318,-0.00351635,0.00390557
5.06,-0.00772287,-0.00878054,0.000679778,0.452388,-0.0769926,-9.57763,20.6178,-0.407157,43.1161,0.999977,-0.000589121,0.00315577,-0.00602243,0.00828399,-0.00351609,0.0039128
5.07,-0.011413,-0.014068,0.00125625,0.423947,-0.121754,-9.63183,20.9772,-0.902012,43.6413,0.999977,-0.000674399,0.00310927,-0.00603539,0.00826073,-0.00349539,0.00386715
5.08,-0.0133431,-0.013111,0.00320841,0.463109,-0.117575,-9.56584,20.5731,-0.571619,44.658,0.999977,-0.000763022,0.0030636,-0.0060483,0.00824849,-0.00347946,0.00386997
5.09,-0.00952628,-0.0155252,0.000683104,0.365864,-0.05426,-9.63357,20.2148,0.273081,44.3205,0.999977,-0.000854937,0.00301879,-0.00606116,0.00825618,-0.00352707,0.00388527
5.1,-0.0103953,-0.0127662,0.000480959,0.481614,-0.0895832,-9.58754,19.9348,0.756881,43.7395,0.999977,-0.000950088,0.00297486,-0.00607397,0.00821029,-0.00348122,0.00383293
5.11,-0.0123932,-0.0129371,0.00215199,0.54127,-0.11633,-9.56269,21.1626,0.355743,42.999,0.999977,-0.00104842,0.0029318,-0.00608672,0.00822093,-0.00345506,0.00380309
5.12,-0.0121801,-0.0118716,0.000437319,0.390077,-0.0224113,-9.6496,20.1364,0.151638,43.995,0.999977,-0.00114985,0.00288965,-0.00609942,0.00821053,-0.00341377,0.00382119
5.13,-0.0106058,-0.0084396,-0.000578824,0.400596,-0.0101275,-9.64302,20.5499,-0.286275,43.2473,0.999976,-0.00125434,0.0028484,-0.00611207,0.00816379,-0.00342016,0.00383153
5.14,-0.0115506,-0.0110229,0.000862205,0.494065,0.0238621,-9.57898,20.1154,-0.0524167,44.506,0.999976,-0.0013618,0.00280808,-0.00612467,0.00811258,-0.00348009,0.00383736
5.15,-0.0131243,-0.0117362,0.000172906,0.4778,-0.142808,-9.69376,19.7056,0.287141,43.9544,0.999976,-0.00147215,0.0027687,-0.00613722,0.00809347,-0.00349053,0.00386201
5.16,-0.0150261,-0.00788211,-0.00166481,0.433722,-0.0278125,-9.57328,19.6071,-0.588155,43.9752,0.999976,-0.00158534,0.00273027,-0.00614971,0.00809659,-0.00349414,0.00385943
5.17,-0.0138217,-0.00893491,0.000500653,0.414991,0.0439848,-9.64859,20.9538,-0.366456,43.888,0.999976,-0.00170126,0.00269279,-0.00616215,0.00809799,-0.0034773,0.00383327
5.18,-0.014844,-0.0106765,-0.00112061,0.453988,-0.0551981,-9.58759,19.4379,0.280453,43.6685,0.999976,-0.00181985,0.00265629,-0.00617455,0.00809251,-0.0034115,0.00385272
5.19,-0.0159258,-0.0098527,0.000643279,0.529255,0.0162702,-9.6599,20.8324,0.234884,43.8233,0.999976,-0.001941,0.00262078,-0.00618689,0.00811463,-0.00338525,0.00389172
5.2,-0.019006,-0.00965851,0.00615052,0.402353,-0.0462761,-9.53056,20.221,-0.187148,44.4503,0.999975,-0.00206464,0.00258625,-0.00619917,0.00812224,-0.00341877,0.00389969
5.21,-0.0178446,-0.00949458,0.00155555,0.468924,0.0194931,-9.56972,20.5788,0.340524,44.0957,0.999975,-0.00219068,0.00255273,-0.00621141,0.00811685,-0.00344865,0.00384955
5.22,-0.0157157,-0.00962355,-0.00223278,0.395114,-0.0158452,-9.6599,20.0874,0.374801,44.259,0.999975,-0.00231901,0.00252023,-0.00622359,0.00815272,-0.00348253,0.00389973
5.23,-0.0189203,-0.00849415,-0.00133727,0.379359,0.0175911,-9.64108,20.8824,0.243547,43.9425,0.999974,-0.00244953,0.00248875,-0.00623573,0.00811913,-0.00341399,0.00386439
5.24,-0.0168447,-0.0110087,0.00112411,0.479739,-0.0408566,-9.66972,20.5649,-1.07035,43.9914,0.999974,-0.00258216,0.0024583,-0.00624781,0.00811938,-0.00336303,0.00383066
5.25,-0.019071,-0.00970397,0.0019121,0.323181,0.00560661,-9.76248,20.7486,-0.1359,44.2534,0.999974,-0.00271678,0.00242889,-0.00625983,0.00806436,-0.00336436,0.0038764
5.26,-0.0184616,-0.0121572,-0.000351864,0.475635,-0.00186406,-9.70469,19.7943,-0.458365,43.8334,0.999973,-0.0028533,0.00240053,-0.00627181,0.00803867,-0.00338958,0.00384474
5.27,-0.022028,-0.00850366,0.00119016,0.444145,-0.00946157,-9.68723,19.3864,-0.507833,42.6718,0.999973,-0.00299159,0.00237323,-0.00628373,0.00802609,-0.00332212,0.00387786
5.28,-0.0202522,-0.00983842,0.00264413,0.373071,-0.0328974,-9.64834,19.9056,0.182549,43.6975,0.999973,-0.00313156,0.002347,-0.0062956,0.00807567,-0.00333517,0.0038349
5.29,-0.0204495,-0.00955304,0.00243552,0.422182,0.0121212,-9.67291,20.3768,-0.103783,43.3796,0.999972,-0.0032731,0.00232184,-0.00630742,0.0080602,-0.00334911,0.00381766
5.3,-0.0220468,-0.0101337,0.000854006,0.34617,-0.00195799,-9.66113,20.3792,0.987563,43.94,0.999972,-0.00341608,0.00229775,-0.00631918,0.00802269,-0.00333398,0.00378182
5.31,-0.0226097,-0.00908783,0.000822707,0.443855,-0.0419599,-9.61043,19.3285,0.226014,44.5257,0.999971,-0.00356039,0.00227475,-0.00633089,0.0080003,-0.00332021,0.00380751
5.32,-0.0223628,-0.00546769,-0.000774611,0.467758,0.00651403,-9.70204,20.2428,-0.131582,42.9506,0.99997,-0.00370592,0.00225284,-0.00634254,0.00805537,-0.0033383,0.00376182
5.33,-0.0209604,-0.00985147,-0.000292397,0.359144,0.0160049,-9.69939,19.2653,-0.252517,44.0337,0.99997,-0.00385255,0.00223203,-0.00635415,0.00800588,-0.00329071,0.00375117
5.34,-0.0204848,-0.00794916,0.0012257,0.397997,-0.00883784,-9.74759,20.798,-0.139172,43.367,0.999969,-0.00400015,0.00221232,-0.00636569,0.0079476,-0.00334399,0.00377595
5.35,-0.0204818,-0.00836556,0.00305392,0.410548,-0.0101896,-9.67498,19.8782,-0.477733,42.8551,0.999969,-0.00414861,0.00219371,-0.00637718,0.00792193,-0.00337844,0.00379296
5.36,-0.0189558,-0.00898479,0.00284277,0.315633,-0.0378851,-9.74043,19.743,-0.205266,43.2936,0.999968,-0.0042978,0.00217622,-0.00638862,0.00793531,-0.00339091,0.00375241
5.37,-0.0196681,-0.00736102,0.0030708,0.451362,-0.0198256,-9.70991,20.295,0.406079,44.0402,0.999967,-0.0044476,0.00215983,-0.0064,0.00791936,-0.00341809,0.00377782
5.38,-0.0222233,-0.00741075,0.00177043,0.338411,0.0574415,-9.63929,20.1287,0.602656,44.7249,0.999967,-0.00459788,0.00214456,-0.00641133,0.00785106,-0.00341285,0.00371861
5.39,-0.0224058,-0.0083169,0.00210294,0.383527,0.0285201,-9.69714,20.4393,-0.0500959,42.7351,0.999966,-0.00474852,0.00213042,-0.00642259,0.00785179,-0.00343158,0.0036622
5.4,-0.0229299,-0.00757225,0.00055662,0.450772,-0.00780741,-9.73774,20.2884,0.0663816,44.0875,0.999965,-0.00489939,0.00211739,-0.00643381,0.00789635,-0.00342614,0.00363623
5.41,-0.021483,-0.00625183,2.35652e-05,0.468604,-0.00816698,-9.81064,20.4297,-0.889179,43.2527,0.999964,-0.00505036,0.00210549,-0.00644496,0.00796699,-0.00338771,0.0035467
5.42,-0.0258102,-0.00619905,-0.000601541,0.46986,0.00263655,-9.79237,19.5386,0.078716,43.8567,0.999963,-0.00520131,0.00209471,-0.00645606,0.00798674,-0.00340121,0.00356445
5.43,-0.0199815,-0.00402466,0.000644798,0.488307,0.0142954,-9.72651,20.4253,-0.80298,42.9444,0.999963,-0.0053521,0.00208506,-0.0064671,0.00795339,-0.0033818,0.00361347
5.44,-0.0237839,-0.00356284,0.00110502,0.389958,0.0867262,-9.63228,19.7205,-0.204158,43.9703,0.999962,-0.00550261,0.00207654,-0.00647808,0.00791637,-0.00334359,0.00363256
5.45,-0.0224932,-0.00597196,0.00359256,0.434904,0.0305713,-9.69064,21.4722,-0.629632,43.8346,0.999961,-0.00565271,0.00206914,-0.006489,0.00789336,-0.0033623,0.00365257
5.46,-0.0194136,-0.00294827,0.00195433,0.450146,0.0306561,-9.85583,20.8479,0.0694766,43.2995,0.99996,-0.00580227,0.00206287,-0.00649986,0.00792196,-0.00335877,0.00361804
5.47,-0.0201203,-0.00696888,0.00477797,0.47146,0.0127793,-9.76072,20.8316,0.440926,43.2294,0.999959,-0.00595116,0.00205772,-0.00651066,0.00787441,-0.00329609,0.00362171
5.48,-0.0207588,-0.00291606,0.00175507,0.421844,0.0780015,-9.74298,19.9212,0.204744,42.6219,0.999958,-0.00609926,0.00205371,-0.00652141,0.00789337,-0.00328615,0.00357293
5.49,-0.0234035,-0.0032278,0.00161896,0.432914,0.0327093,-9.71246,19.2952,-0.0298211,44.547,0.999957,-0.00624642,0.00205081,-0.00653209,0.00784868,-0.00330038,0.00358654
5.5,-0.0207748,-0.0044993,0.00229529,0.411734,0.08549,-9.86149,19.1636,-0.408927,43.3945,0.999956,-0.00639254,0.00204904,-0.00654271,0.00784504,-0.00330254,0.00354498
5.51,-0.0220258,-0.00262528,0.00237853,0.427711,0.0907264,-9.8564,20.3554,-0.267044,44.1169,0.999955,-0.00653748,0.00204839,-0.00655327,0.0078557,-0.00331706,0.00354624
5.52,-0.0193849,-0.00203084,0.00276037,0.471411,0.0577881,-9.79152,20.5514,-1.19035,44.3517,0.999954,-0.0066811,0.00204885,-0.00656377,0.00786178,-0.00327242,0.00359394
5.53,-0.0246457,-0.00445391,0.00287774,0.497757,0.0916791,-9.76776,20.7066,-0.319879,43.0038,0.999953,-0.0068233,0.00205043,-0.0065742,0.00791045,-0.00328748,0.00357833
5.54,-0.0216919,-0.00578387,0.00257717,0.489057,0.10208,-9.80511,19.7465,-0.539806,43.5543,0.999952,-0.00696394,0.00205311,-0.00658458,0.00789402,-0.00334333,0.00356039
5.55,-0.0223254,-0.00394633,0.000733524,0.476947,0.132771,-9.79399,20.6579,-0.97319,43.376,0.999951,-0.0071029,0.00205691,-0.00659489,0.00788682,-0.00329518,0.00351137
5.56,-0.0202827,-0.000237063,0.00145814,0.404385,0.0720073,-9.82016,21.1798,-0.300055,43.8791,0.99995,-0.00724006,0.0020618,-0.00660514,0.00788147,-0.00338425,0.00340906
5.57,-0.019799,-0.00271308,0.00305947,0.361962,-0.0232963,-9.81964,20.7712,-0.726378,43.4248,0.999949,-0.0073753,0.0020678,-0.00661533,0.00790319,-0.00337731,0.00341108
5.58,-0.0196879,-0.0041828,0.000612592,0.387294,0.112878,-9.7676,21.0038,0.0854398,43.379,0.999948,-0.00750849,0.00207488,-0.00662545,0.00789788,-0.00337717,0.00338838
5.59,-0.0146884,-0.00280174,0.00118803,0.448324,0.105856,-9.74047,20.408,-0.18811,43.3741,0.999947,-0.00763952,0.00208305,-0.00663551,0.00790647,-0.0033677,0.00337771
5.6,-0.0164395,-0.00544935,0.00169336,0.372565,0.0984271,-9.81325,20.4365,-0.209992,43.7201,0.999946,-0.00776828,0.0020923,-0.0066455,0.00792808,-0.00333884,0.00334355
5.61,-0.0177757,-0.00355761,-0.00082013,0.331724,0.121467,-9.78237,20.7017,-0.654705,43.3138,0.999944,-0.00789465,0.00210262,-0.00665543,0.00794131,-0.00342405,0.00339289
5.62,-0.0149851,-0.00426878,0.00384235,0.356602,0.0956728,-9.745,19.7025,-0.649904,44.0097,0.999943,-0.00801851,0.00211401,-0.0066653,0.00789181,-0.00342031,0.00337982
5.63,-0.0135653,-0.00339383,0.00441932,0.4356,0.0615262,-9.7826,20.3468,0.489084,43.2871,0.999942,-0.00813976,0.00212646,-0.0066751,0.00788159,-0.00343153,0.00336939
5.64,-0.0143529,-0.000735423,0.00438966,0.413677,0.0370261,-9.76781,20.6659,-0.04691,44.2219,0.999941,-0.00825828,0.00213997,-0.00668484,0.00793679,-0.0034373,0.00331891
5.65,-0.0173596,-0.000959802,0.000524404,0.368987,0.098689,-9.79072,19.7472,-0.403434,43.9803,0.99994,-0.00837398,0.00215451,-0.00669451,0.00796878,-0.00342827,0.00328084
5.66,-0.0151958,0.00044567,0.00269021,0.409435,0.14079,-9.80042,20.5816,-1.34406,43.5302,0.999939,-0.00848675,0.00217009,-0.00670412,0.00795818,-0.00347609,0.00334791
5.67,-0.012706,0.00287836,-0.000443999,0.443866,-0.00268381,-9.89818,20.1308,-0.801744,43.2034,0.999938,-0.00859649,0.0021867,-0.00671366,0.00789747,-0.00352033,0.0033345
5.68,-0.0117322,0.000400509,-0.000220192,0.460658,0.191775,-9.78628,20.3401,-0.803401,44.3806,0.999937,-0.00870309,0.00220432,-0.00672314,0.00793086,-0.00348148,0.0033563
5.69,-0.0158079,0.00133298,0.00173593,0.394351,0.0844982,-9.8621,20.6665,-0.486859,44.0328,0.999936,-0.00880647,0.00222296,-0.00673255,0.00796886,-0.00350933,0.0032883
5.7,-0.0136059,0.000896501,0.000788786,0.466707,0.167546,-9.88147,20.1228,-0.761746,44.6981,0.999935,-0.00890652,0.00224259,-0.0067419,0.00796226,-0.00359618,0.00327999
5.71,-0.0129848,0.00180975,-0.000462094,0.46535,0.09909,-9.82743,20.9923,-0.764228,43.965,0.999934,-0.00900317,0.00226321,-0.00675118,0.00800222,-0.00354651,0.00330313
5.72,-0.0101688,0.00226837,0.00582451,0.477121,0.105823,-9.82901,20.7221,0.440772,44.5992,0.999933,-0.00909631,0.0022848,-0.0067604,0.00795853,-0.00351344,0.00332273
5.73,-0.0133001,0.00337639,0.00204251,0.49341,0.160166,-9.87572,20.0135,-1.51128,43.0989,0.999932,-0.00918588,0.00230737,-0.00676955,0.00802739,-0.00353086,0.00333864
5.74,-0.00742812,0.00308329,0.00132321,0.416008,0.0680001,-9.87187,19.8615,-0.853672,43.4847,0.999931,-0.00927178,0.00233088,-0.00677864,0.00802192,-0.00351775,0.00334842
5.75,-0.00946845,-0.00198664,0.00173531,0.38965,0.0874521,-9.96248,19.8947,-1.1851,44.71,0.99993,-0.00935393,0.00235534,-0.00678766,0.00804759,-0.00356478,0.00333944
5.76,-0.00413923,-0.00125841,0.00250291,0.441074,0.0758148,-9.92866,19.9054,-0.777557,43.0233,0.99993,-0.00943227,0.00238073,-0.00679662,0.00803825,-0.00357096,0.0033272
5.77,-0.00618708,0.0041689,0.000936677,0.442107,0.0803948,-9.86751,20.8653,0.553321,43.1416,0.999929,-0.00950672,0.00240704,-0.00680552,0.00805918,-0.00357446,0.00335915
5.78,-0.00460774,0.00206343,0.00176002,0.454287,0.165116,-9.88547,21.1612,-1.30577,43.5116,0.999928,-0.00957721,0.00243425,-0.00681435,0.00808987,-0.00356666,0.00336784
5.79,-0.000761476,0.0035858,-0.00211926,0.442029,0.0820042,-9.9979,20.0476,-1.16694,43.0632,0.999927,-0.00964367,0.00246236,-0.00682312,0.00813466,-0.0036043,0.00337912
5.8,-0.00444879,0.00138228,0.0013804,0.438768,0.0890209,-9.89415,20.3043,-1.00308,43.1266,0.999926,-0.00970606,0.00249135,-0.00683183,0.00813687,-0.00359125,0.00336775
5.81,-0.0040522,0.00109619,0.00138631,0.466007,0.135766,-9.8494,19.8299,-1.09728,43.4411,0.999926,-0.0097643,0.0025212,-0.00684047,0.00818229,-0.00360071,0.00331924
5.82,0.00115132,0.00310162,0.000185651,0.50984,0.0843841,-9.84867,20.3364,-1.73142,43.846,0.999925,-0.00981834,0.00255191,-0.00684905,0.00816987,-0.00360711,0.00330327
5.83,-0.001108,0.00460174,0.00232045,0.4167,0.187046,-9.87181,20.6398,-1.66455,43.0736,0.999924,-0.00986814,0.00258345,-0.00685757,0.00812937,-0.00355628,0.00331093
5.84,-0.00260408,0.00192947,0.00230838,0.48662,0.186858,-9.92968,20.4274,-0.509868,44.6019,0.999924,-0.00991365,0.00261581,-0.00686602,0.00808649,-0.00353369,0.0032796
5.85,0.00245835,0.00265379,0.00149205,0.484454,0.147036,-9.83579,20.7957,-0.0152512,43.9371,0.999923,-0.00995482,0.00264898,-0.00687442,0.00807508,-0.00356053,0.00329084
5.86,-0.000189822,0.00026621,0.00178957,0.400644,0.15176,-9.94017,20.302,0.289309,43.5719,0.999923,-0.00999161,0.00268295,-0.00688275,0.0080581,-0.00355035,0.0033391
5.87,0.00246359,0.00194436,-6.19186e-06,0.445713,0.0991606,-9.9727,20.5037,-1.15478,43.5708,0.999922,-0.010024,0.00271769,-0.00689103,0.00811921,-0.00354512,0.00335863
5.88,0.00213887,0.0059351,0.00314292,0.416193,0.12243,-9.96715,20.572,-1.01485,42.7876,0.999922,-0.0100519,0.00275319,-0.00689924,0.0081382,-0.00355349,0.00335456
5.89,0.00169999,0.00378866,0.000933512,0.527231,0.107309,-9.89901,20.0792,-0.867595,44.3237,0.999921,-0.0100754,0.00278944,-0.00690739,0.00813358,-0.00358428,0.00334745
5.9,0.0025745,0.00749098,0.00480705,0.423577,0.136276,-9.86451,20.6124,-0.943191,43.8274,0.999921,-0.0100944,0.00282641,-0.00691549,0.00813614,-0.00350762,0.00337214
5.91,0.00416578,0.00315553,-0.000323803,0.435805,0.15313,-9.89271,20.9508,-0.741889,44.1553,0.999921,-0.0101089,0.0028641,-0.00692353,0.00812588,-0.00354818,0.00338213
5.92,0.00768257,0.00588038,0.000423025,0.468974,0.166931,-10.0149,20.3346,-0.463475,43.6586,0.999921,-0.0101188,0.00290248,-0.00693151,0.00809039,-0.00353828,0.00337417
5.93,0.00812631,0.00428533,0.000721547,0.490573,0.122169,-9.93622,20.4534,-0.998972,43.2056,0.99992,-0.0101242,0.00294154,-0.00693943,0.00810407,-0.0034904,0.00338166
5.94,0.00883968,0.00357693,-0.00193199,0.418511,0.0212961,-9.99322,20.1667,-1.19656,43.4753,0.99992,-0.0101251,0.00298127,-0.0069473,0.00814144,-0.00349553,0.00337619
5.95,0.0107126,0.0045439,0.00191787,0.527442,0.234792,-9.89594,20.8217,-1.7755,43.2863,0.99992,-0.0101214,0.00302163,-0.00695511,0.00816372,-0.00350141,0.00336699
5.96,0.00969772,0.00577349,0.00260267,0.609982,0.193534,-9.93399,20.2544,-0.811697,44.8093,0.99992,-0.0101132,0.00306262,-0.00696286,0.00809964,-0.00345692,0.00344024
5.97,0.0084805,0.00342893,0.00431683,0.50773,0.165091,-9.95435,20.3829,-0.645002,44.1061,0.99992,-0.0101004,0.00310422,-0.00697057,0.00809362,-0.00343557,0.00340965
5.98,0.0106524,0.00243286,0.00139309,0.433424,0.128161,-9.86384,19.6112,-1.22605,43.5746,0.99992,-0.0100831,0.00314641,-0.00697821,0.00808262,-0.00350096,0.00338812
5.99,0.0113696,0.00521936,-0.00379024,0.490993,0.188812,-9.9766,21.0926,-0.808791,44.1886,0.99992,-0.0100613,0.00318917,-0.00698581,0.00808868,-0.003525,0.00339975
6,0.0142177,0.00382348,0.00470608,0.449925,0.0620032,-9.95802,20.3741,-0.900107,43.0804,0.99992,-0.0100349,0.00323248,-0.00699335,0.00808234,-0.00346774,0.00337687
6.01,0.0138628,0.00504577,0.00277887,0.41402,0.137672,-10.0501,20.0833,-1.13944,43.272,0.99992,-0.0100041,0.00327632,-0.00700084,0.00811928,-0.00350522,0.00333412
6.02,0.0174945,0.00512652,0.00312807,0.462434,0.11512,-10.0248,20.497,-0.951645,43.5869,0.99992,-0.00996886,0.00332067,-0.00700828,0.00811235,-0.0035475,0.00334017
6.03,0.0144529,0.00481685,0.00230316,0.394991,0.144015,-9.90904,19.8223,-0.742302,44.566,0.99992,-0.00992916,0.00336553,-0.00701566,0.00810437,-0.00356864,0.00333685
6.04,0.0170465,0.00492313,-0.00133486,0.446046,0.141662,-9.9785,19.9745,-1.01836,43.0899,0.999921,-0.00988507,0.00341085,-0.007023,0.00811252,-0.00359305,0.00336901
6.05,0.0185772,0.00636171,0.000928988,0.424716,0.14875,-9.99177,20.0448,-0.571645,43.3198,0.999921,-0.00983661,0.00345663,-0.00703029,0.00817414,-0.00358359,0.0033847
6.06,0.0154066,0.00672593,0.00653757,0.494308,0.138363,-10.0476,20.3256,-0.932992,43.4532,0.999921,-0.00978384,0.00350285,-0.00703753,0.00820163,-0.00352864,0.00344915
6.07,0.0217844,0.00493324,0.00384878,0.514174,0.0928294,-10.0288,20.5301,-0.276868,44.7392,0.999922,-0.00972679,0.00354948,-0.00704472,0.00821124,-0.00349743,0.00342759
6.08,0.0217391,0.00399905,0.00242905,0.471783,0.210166,-9.95397,20.9864,-0.188105,43.5467,0.999922,-0.00966552,0.00359651,-0.00705186,0.00816431,-0.00353361,0.0034727
6.09,0.0222728,0.00636377,0.00597663,0.497009,0.0941128,-9.96079,20.4135,-1.30654,44.2348,0.999922,-0.00960007,0.00364392,-0.00705896,0.00819961,-0.00353577,0.00347143
6.1,0.0227578,0.00685185,0.00162481,0.519558,0.169976,-9.96155,19.9947,-0.721137,43.5847,0.999923,-0.00953051,0.00369168,-0.00706601,0.00823877,-0.00354034,0.00351616
6.11,0.0229525,0.00890254,0.00229643,0.49235,0.10243,-9.87961,20.2209,-0.592694,43.8606,0.999923,-0.00945689,0.00373977,-0.00707301,0.00826019,-0.00352587,0.0034913
6.12,0.0256755,0.00615731,0.00184723,0.530892,0.107768,-9.96028,21.5112,-0.275597,43.5328,0.999924,-0.00937927,0.00378818,-0.00707997,0.00824518,-0.00346755,0.00352599
6.13,0.0258917,0.00608611,3.82165e-05,0.41843,0.182079,-9.98192,20.4019,-1.37542,43.8045,0.999924,-0.00929772,0.00383688,-0.00708688,0.00818163,-0.00347298,0.00353475
6.14,0.0292257,0.00708016,0.00258964,0.457079,0.281534,-10.0471,18.8999,-1.36638,44.2235,0.999925,-0.00921231,0.00388585,-0.00709375,0.00816206,-0.00351979,0.00358001
6.15,0.0263319,0.00650646,0.0015733,0.438882,0.174417,-9.98001,19.6742,-1.16922,44.4192,0.999925,-0.00912312,0.00393508,-0.00710057,0.00817153,-0.00348579,0.00359209
6.16,0.0276159,0.00900724,0.00132761,0.383185,0.160494,-9.93246,21.2553,-0.402626,43.6623,0.999926,-0.00903022,0.00398453,-0.00710736,0.00818059,-0.00352759,0.00360678
6.17,0.0285128,0.00428614,0.0020006,0.432713,0.116507,-9.9098,20.7033,-0.713009,43.1221,0.999927,-0.00893369,0.0040342,-0.00711409,0.00815895,-0.00356775,0.00365649
6.18,0.0282838,0.00458507,0.00638572,0.606728,0.157159,-9.98887,20.4628,0.703011,43.5221,0.999927,-0.00883361,0.00408405,-0.00712079,0.00820167,-0.00362488,0.00360833
6.19,0.0284753,0.00777013,0.00241627,0.544583,0.124637,-9.9937,20.6548,-0.213248,45.6019,0.999928,-0.00873007,0.00413407,-0.00712744,0.00824053,-0.00361373,0.0036073
6.2,0.0300517,0.00423203,0.00366819,0.523873,0.108866,-9.98082,20.4903,-0.776987,43.5487,0.999929,-0.00862316,0.00418423,-0.00713405,0.00821755,-0.00359904,0.00360276
6.21,0.0330055,0.00643275,0.00476707,0.460416,0.0962813,-9.96979,20.6761,-0.771685,44.6705,0.999929,-0.00851297,0.00423452,-0.00714062,0.00822556,-0.00362921,0.0035766
6.22,0.0319005,0.00585632,0.00373006,0.433304,0.133921,-10.0095,19.9006,-0.520832,43.1981,0.99993,-0.0083996,0.00428491,-0.00714715,0.00824245,-0.00362606,0.00358012
6.23,0.0309476,0.00714782,0.00396897,0.528514,0.0893569,-9.91572,19.722,-0.758651,43.484,0.999931,-0.00828314,0.00433538,-0.00715363,0.00817049,-0.00369484,0.00355988
6.24,0.0365095,0.00707626,0.00317013,0.491812,0.0230759,-10.1063,20.0162,-0.439138,43.6851,0.999931,-0.00816369,0.00438591,-0.00716008,0.00816471,-0.00368015,0.00356171
6.25,0.0341926,0.00791888,0.00188058,0.448198,0.172039,-10.0119,19.7133,-0.00266369,43.7765,0.999932,-0.00804135,0.00443648,-0.00716648,0.00818234,-0.00367075,0.00357138
6.26,0.0343161,0.00928011,-0.000509842,0.490573,0.0773889,-10.0235,20.343,-0.0482167,44.0779,0.999933,-0.00791624,0.00448706,-0.00717284,0.00815736,-0.00368614,0.00353123
6.27,0.0326418,0.00961105,0.00380005,0.436523,0.1272,-10.0367,20.6195,0.533973,44.2439,0.999934,-0.00778846,0.00453764,-0.00717916,0.00815521,-0.0036751,0.00348763
6.28,0.0343261,0.00551071,0.00170643,0.542633,0.11114,-10.054,19.0907,-0.286343,42.9725,0.999934,-0.00765812,0.00458819,-0.00718544,0.00815884,-0.00363289,0.00353224
6.29,0.0336332,0.00618111,0.00156396,0.505275,0.166617,-9.9335,20.6515,-1.50934,44.371,0.999935,-0.00752532,0.00463869,-0.00719168,0.00813895,-0.00366226,0.00347582
6.3,0.0343036,0.0070691,0.00246327,0.504503,0.0510696,-10.0557,20.7737,-0.82095,43.603,0.999936,-0.00739019,0.00468912,-0.00719788,0.00816453,-0.00369721,0.00345997
6.31,0.0337075,0.00488172,0.00524959,0.462728,0.103667,-9.99876,20.1021,-0.0308376,44.5635,0.999937,-0.00725284,0.00473946,-0.00720404,0.00815682,-0.00371719,0.00345412
6.32,0.0346365,0.00515104,0.0034819,0.564551,0.119915,-10.0784,19.915,-1.12471,43.1561,0.999937,-0.00711338,0.00478969,-0.00721015,0.00815439,-0.00370876,0.0034125
6.33,0.037269,0.00283526,0.000649986,0.494707,0.086757,-9.98192,20.8114,0.151616,43.0931,0.999938,-0.00697195,0.00483978,-0.00721622,0.00818598,-0.00370134,0.00341887
6.34,0.0350731,0.00269177,0.00107454,0.429774,0.0618583,-9.97847,21.3867,-0.54823,43.7203,0.999939,-0.00682865,0.00488972,-0.00722225,0.00818339,-0.00367218,0.0034353
6.35,0.0363348,0.00639796,0.00209893,0.563669,0.0610349,-9.95159,20.2292,1.04771,44.2904,0.999939,-0.0066836,0.00493948,-0.00722824,0.00826492,-0.00367393,0.00343765
6.36,0.0406592,0.00284752,0.00149397,0.485681,0.152095,-10.0204,19.1088,-0.704009,44.0694,0.99994,-0.00653695,0.00498903,-0.00723419,0.00828566,-0.00366374,0.00348114
6.37,0.0411123,0.00640436,0.00265107,0.43341,0.154213,-10.0657,20.5839,-0.507109,42.5296,0.999941,-0.0063888,0.00503837,-0.00724009,0.00827236,-0.00361853,0.00350683
6.38,0.0386781,0.00853947,0.00525524,0.528872,0.117466,-9.95198,20.6397,0.457927,42.9152,0.999941,-0.00623928,0.00508746,-0.00724595,0.00831147,-0.00353684,0.00355847
6.39,0.0379869,0.00716816,0.00285202,0.493262,0.0506992,-10.0144,19.9167,-0.441897,43.45,0.999942,-0.00608852,0.00513629,-0.00725176,0.00834341,-0.00353837,0.00355991
6.4,0.0408866,0.00951734,0.00386693,0.561499,0.0823179,-10.0045,19.8194,-0.596488,43.7622,0.999943,-0.00593665,0.00518484,-0.00725753,0.00829625,-0.0035278,0.0035627
6.41,0.0370476,0.00874092,0.00176164,0.540734,0.117756,-9.95088,20.742,0.11902,44.9925,0.999943,-0.0057838,0.00523308,-0.00726326,0.00831885,-0.00352673,0.00353978
6.42,0.0411782,0.00656073,0.00484243,0.534408,0.121282,-9.95916,20.461,-0.377815,43.515,0.999944,-0.00563009,0.005281,-0.00726894,0.00830477,-0.00352276,0.00358836
6.43,0.0384292,0.0088024,0.00263096,0.550653,0.0947143,-10.0174,19.8077,-1.19798,44.0449,0.999944,-0.00547566,0.00532856,-0.00727457,0.00834011,-0.00350648,0.0036095
6.44,0.0396859,0.00751006,0.00117919,0.532737,0.0629975,-9.95495,19.3615,-0.294578,43.7685,0.999945,-0.00532064,0.00537576,-0.00728016,0.00830014,-0.0034869,0.0035897
6.45,0.0385991,0.00583607,0.00274592,0.452354,0.0864022,-9.96674,19.7394,-0.511566,43.3284,0.999945,-0.00516514,0.00542257,-0.0072857,0.00832149,-0.00345447,0.00355364
6.46,0.0397733,0.00724058,0.00355538,0.481188,0.0672269,-9.94967,20.1862,0.225409,43.7663,0.999946,-0.00500931,0.00546897,-0.00729118,0.00829768,-0.00345621,0.00352479
6.47,0.0382857,0.00724289,0.00573517,0.50337,-0.0490952,-10.0445,19.8536,-1.13561,44.8821,0.999946,-0.00485328,0.00551494,-0.00729662,0.00827653,-0.00346133,0.00355131
6.48,0.0397244,0.00351575,0.0028617,0.518301,0.0971555,-9.97409,19.8003,-0.344575,44.2164,0.999947,-0.00469717,0.00556046,-0.00730201,0.00829092,-0.00344222,0.00358004
6.49,0.0356604,0.00554236,0.00338023,0.606547,0.00895454,-9.95348,20.3006,0.332576,44.8389,0.999947,-0.00454111,0.00560551,-0.00730735,0.00828457,-0.00345487,0.00354783
6.5,0.0378566,0.00529874,0.000790128,0.608583,0.059544,-10.0044,19.5191,-0.682344,44.5365,0.999948,-0.00438524,0.00565007,-0.00731264,0.00824766,-0.00344515,0.00354846
6.51,0.0411012,0.00458601,0.00421473,0.583905,0.00913815,-9.98577,19.6836,-0.0260118,43.535,0.999948,-0.00422968,0.00569412,-0.00731787,0.00820694,-0.0035074,0.00355405
6.52,0.0398807,0.00911906,0.00340806,0.447421,0.0771194,-9.93243,18.8358,0.570663,44.1404,0.999948,-0.00407456,0.00573764,-0.00732305,0.0082302,-0.00351483,0.00352773
6.53,0.0405865,0.00419533,0.00210563,0.492561,0.0496333,-9.92634,20.2472,0.0792287,44.4431,0.999949,-0.00392,0.00578061,-0.00732817,0.00819919,-0.00355503,0.00349506
6.54,0.037664,0.00292892,-0.000161783,0.539241,0.0553652,-10.0047,19.7005,-0.397831,43.5501,0.999949,-0.00376614,0.00582301,-0.00733324,0.00819997,-0.00355633,0.00348112
6.55,0.0400165,0.00442777,0.000994945,0.61035,0.113786,-9.99465,20.9699,-0.0425755,44.3455,0.999949,-0.00361309,0.00586482,-0.00733825,0.00818588,-0.00353106,0.00346332
6.56,0.0359613,0.00557053,0.00207862,0.520961,0.0462935,-10.0303,20.8804,-0.736237,43.9779,0.99995,-0.00346099,0.00590603,-0.0073432,0.00815412,-0.00351022,0.00342034
6.57,0.0403237,0.00392777,0.000469741,0.523167,0.0790141,-10.0026,19.6194,-0.153591,43.5122,0.99995,-0.00330995,0.00594661,-0.00734809,0.00814185,-0.00350846,0.00335299
6.58,0.0336573,0.00243095,0.00557666,0.489766,-0.0139307,-9.95959,20.028,0.220978,44.2805,0.99995,-0.0031601,0.00598654,-0.00735292,0.00817048,-0.00352485,0.00333472
6.59,0.0394573,0.00453714,0.00165543,0.568087,0.00330044,-9.96616,19.3914,-0.474239,43.3319,0.99995,-0.00301155,0.00602582,-0.00735769,0.00807996,-0.0035168,0.00336962
6.6,0.0388639,0.00294112,-0.000128111,0.495803,0.0622869,-9.8858,19.6231,-0.523923,43.49,0.99995,-0.00286443,0.00606441,-0.00736239,0.00804638,-0.00352624,0.00334756
6.61,0.0384501,0.00665341,0.00387855,0.460077,0.084654,-9.95428,20.2643,-0.670949,44.6815,0.999951,-0.00271884,0.0061023,-0.00736704,0.00802367,-0.00348591,0.00340706
6.62,0.0379243,0.00417329,0.00241318,0.506788,0.0408256,-9.90128,20.5388,-0.196968,43.601,0.999951,-0.00257491,0.00613948,-0.00737161,0.00802346,-0.00341646,0.00343078
6.63,0.0403675,0.00377611,0.00560301,0.601504,0.0375365,-9.90283,19.517,-0.223015,44.2263,0.999951,-0.00243275,0.00617592,-0.00737612,0.00802953,-0.00344712,0.00341377
6.64,0.0363205,0.00180964,0.00387492,0.618205,-0.0162502,-9.93189,20.3172,-0.733662,43.5569,0.999951,-0.00229247,0.00621162,-0.00738056,0.00799547,-0.00349741,0.00339363
6.65,0.0354923,0.00485953,0.00271193,0.498124,0.0365691,-9.94856,19.3258,-0.262585,43.9068,0.999951,-0.00215417,0.00624654,-0.00738494,0.00804087,-0.00348211,0.0033746
6.66,0.0322998,0.00364578,0.00360552,0.548182,0.106932,-10.0183,20.7018,-0.244641,43.134,0.999951,-0.00201796,0.00628068,-0.00738924,0.00802935,-0.00345217,0.00340461
6.67,0.0330741,0.00325444,0.00385142,0.501578,0.0192911,-9.99533,20.0769,0.147622,44.5594,0.999951,-0.00188395,0.00631401,-0.00739347,0.00804471,-0.00343166,0.00339791
6.68,0.0358886,0.00351987,0.00133883,0.506985,0.0152303,-9.95847,20.2845,0.14983,43.7975,0.999951,-0.00175224,0.00634653,-0.00739763,0.00801778,-0.00345751,0.00334272
6.69,0.0362459,0.0027515,0.000959921,0.494017,0.0531353,-9.98924,19.0542,-0.238902,44.2414,0.999951,-0.00162292,0.00637821,-0.00740171,0.00801979,-0.00339576,0.00330811
6.7,0.0326442,0.00226378,0.00203489,0.489746,0.0264097,-9.78834,19.1764,0.330762,43.4708,0.999951,-0.00149609,0.00640905,-0.00740572,0.00805124,-0.00341131,0.00326851
6.71,0.0321714,0.00450941,0.00244575,0.524111,-0.0257872,-10.0113,19.9548,0.803299,44.3855,0.999951,-0.00137185,0.00643901,-0.00740965,0.00805792,-0.00341622,0.00330597
6.72,0.0319477,0.00302105,0.002621,0.63464,-0.0445475,-9.90726,19.131,-0.21351,44.6846,0.999951,-0.00125028,0.0064681,-0.00741351,0.00804305,-0.00340918,0.0033296
6.73,0.0288528,0.00227655,0.00344551,0.536252,-0.0549053,-9.90614,19.8438,0.0925276,43.43,0.999951,-0.00113147,0.00649629,-0.00741729,0.00805283,-0.003381,0.00330588
6.74,0.0310634,3.62943e-05,0.0020414,0.486651,-0.014899,-9.92776,20.4524,0.378159,43.8351,0.999951,-0.0010155,0.00652357,-0.00742098,0.0080113,-0.00339376,0.0033501
6.75,0.0276653,0.00245075,0.0022161,0.561131,0.0415739,-9.88779,19.7778,0.889312,44.1901,0.999951,-0.000902468,0.00654993,-0.0074246,0.00795274,-0.00343455,0.00333747
6.76,0.0318625,-0.00125797,0.00191019,0.479455,0.0904383,-9.85898,20.0679,0.0281831,42.9599,0.99995,-0.000792437,0.00657535,-0.00742813,0.00796213,-0.00349154,0.00327625
6.77,0.0296876,0.00108167,0.00370151,0.481836,-0.00274264,-9.98406,20.0111,0.446411,43.2137,0.99995,-0.000685484,0.00659981,-0.00743159,0.00793008,-0.00352285,0.00331783
6.78,0.0301555,0.000265239,0.00316498,0.515262,0.00623967,-9.84452,20.1741,0.579337,44.5607,0.99995,-0.000581682,0.00662331,-0.00743495,0.00792026,-0.0035293,0.00330244
6.79,0.0256696,0.00240064,0.00458589,0.515598,0.0169368,-9.95948,19.3272,0.236435,44.6505,0.99995,-0.000481097,0.00664582,-0.00743823,0.00791931,-0.00352379,0.00332156
6.8,0.027397,-0.000134175,0.0024676,0.506267,-0.10683,-9.89319,19.4187,-0.314583,44.076,0.99995,-0.000383796,0.00666735,-0.00744143,0.00793961,-0.00349861,0.00334288
6.81,0.026367,0.000565422,0.00277277,0.520723,-0.00943795,-9.93492,19.9637,0.522726,43.4746,0.99995,-0.000289837,0.00668787,-0.00744454,0.00796456,-0.0034655,0.00336175
6.82,0.0266922,0.0021308,0.00507707,0.59921,0.0344734,-9.86574,20.5421,0.342833,44.2334,0.99995,-0.00019928,0.00670737,-0.00744756,0.00797524,-0.00343037,0.00336436
6.83,0.0274164,-0.000500363,0.00259944,0.56824,-0.0658518,-9.87307,19.2795,0.270636,43.4443,0.99995,-0.000112176,0.00672585,-0.00745049,0.00805004,-0.00345429,0.00338037
6.84,0.0229917,0.00057585,0.00474383,0.508034,-0.0617659,-9.82422,19.8175,-0.410669,43.4773,0.999949,-2.85772e-05,0.00674328,-0.00745334,0.00807625,-0.00339864,0.00336121
6.85,0.0247344,0.00175589,0.00241734,0.608464,-0.0175457,-9.91278,19.4123,-0.0578722,44.1948,0.999949,5.14719e-05,0.00675966,-0.00745609,0.00805538,-0.00341867,0.00332267
6.86,0.0237428,-0.00230905,0.0029568,0.50842,-0.00403468,-9.94904,20.4884,-0.836215,44.0383,0.999949,0.000127928,0.00677498,-0.00745875,0.00803893,-0.00343815,0.00336118
6.87,0.0212999,-0.000663931,0.00138378,0.51623,-0.053362,-9.84739,20.3009,0.611629,44.2404,0.999949,0.000200753,0.00678922,-0.00746132,0.00810434,-0.00339162,0.00334328
6.88,0.0219826,-0.000312536,0.00567355,0.569164,-0.0734818,-9.85535,20.3097,1.05359,44.1106,0.999949,0.000269913,0.00680238,-0.00746379,0.00806463,-0.00337504,0.00334702
6.89,0.0197205,-0.00166717,0.00512565,0.471086,-0.0677545,-9.77309,19.9125,0.0138794,43.5235,0.999949,0.000335375,0.00681445,-0.00746618,0.00815084,-0.00341287,0.00332864
6.9,0.0212398,0.000818762,0.00415612,0.489802,-0.00884706,-9.76886,20.3882,0.124188,43.3015,0.999949,0.000397115,0.00682541,-0.00746846,0.00820927,-0.00341072,0.00340119
6.91,0.0188673,-0.00255646,0.00228763,0.505438,0.063509,-9.80452,19.6946,0.947758,44.387,0.999949,0.000455107,0.00683526,-0.00747066,0.00819259,-0.00344829,0.0033986
6.92,0.0169651,-0.00278213,0.00235915,0.534372,-0.0598373,-9.87105,20.5068,0.239431,44.2625,0.999949,0.000509335,0.00684399,-0.00747276,0.00815372,-0.00342157,0.00337074
6.93,0.0201226,0.00102922,0.00362488,0.520833,-0.0266209,-9.7957,20.2916,-0.263339,44.0981,0.999948,0.000559781,0.00685159,-0.00747476,0.00816371,-0.00336876,0.00339443
6.94,0.0189845,0.00257296,0.00326879,0.59069,-0.0702706,-9.79308,19.6542,-0.868448,44.0129,0.999948,0.000606437,0.00685805,-0.00747667,0.00813817,-0.00336602,0.00339284
6.95,0.0166457,-0.0043505,0.00695108,0.549466,0.0102995,-9.82643,19.6621,0.34894,44.2515,0.999948,0.000649294,0.00686337,-0.00747849,0.00812006,-0.00339583,0.00343026
6.96,0.0133393,-0.00649057,0.00537331,0.488496,-0.0598577,-9.83659,20.2468,0.128972,43.8693,0.999948,0.00068835,0.00686753,-0.0074802,0.00808469,-0.00343755,0.00343902
6.97,0.013027,-0.00421412,0.0044135,0.449172,0.00901858,-9.82455,20.0743,0.147749,43.45,0.999948,0.000723605,0.00687053,-0.00748182,0.00814167,-0.0034525,0.00341269
6.98,0.0131698,-0.00159671,0.00286969,0.569753,-0.169839,-9.74636,19.8831,-0.150385,44.0268,0.999948,0.000755065,0.00687237,-0.00748335,0.00819434,-0.00342029,0.00341127
6.99,0.0112139,-0.00381206,0.00392422,0.517806,-0.0136028,-9.79362,19.7607,-0.480084,44.2582,0.999948,0.000782738,0.00687303,-0.00748477,0.00813038,-0.00345407,0.00344983
7,0.0138074,-0.00133007,0.00396253,0.426654,-0.0170449,-9.83168,19.5049,-0.0935608,43.5315,0.999948,0.000806638,0.00687251,-0.0074861,0.00808927,-0.00348319,0.00352693
7.01,0.0135189,-0.00463953,0.006607,0.559986,0.0539095,-9.78262,20.0494,0.726085,43.9361,0.999948,0.000826781,0.00687081,-0.00748734,0.00814914,-0.00345213,0.00352874
7.02,0.0119785,-0.00161207,0.00585342,0.509704,-0.0842616,-9.75989,19.5328,0.18022,44.3329,0.999948,0.000843189,0.00686791,-0.00748847,0.00816633,-0.0034763,0.00351895
7.03,0.0103596,-0.00747086,0.00136533,0.54802,0.085323,-9.69857,20.8881,-0.0273523,44.4634,0.999948,0.000855886,0.00686383,-0.00748951,0.00806238,-0.0035171,0.00346458
7.04,0.00662247,-0.00510905,0.00126544,0.625997,-0.102956,-9.85829,20.818,-0.00708479,43.0719,0.999948,0.000864901,0.00685854,-0.00749046,0.0080541,-0.00353276,0.00344078
7.05,0.010022,-0.00630453,0.00383745,0.551625,-0.028401,-9.73258,20.086,0.256345,43.9225,0.999948,0.000870267,0.00685205,-0.0074913,0.00806632,-0.00355106,0.00341158
7.06,0.00910734,-0.00477631,0.0047201,0.561292,-0.0786831,-9.8072,18.758,-0.00337392,43.2662,0.999948,0.000872019,0.00684436,-0.00749205,0.00802605,-0.00354743,0.0033918
7.07,0.00599006,-0.00930481,0.0031327,0.566595,-0.143441,-9.72,20.124,0.317769,44.1392,0.999948,0.000870198,0.00683545,-0.00749271,0.00804596,-0.00361664,0.00336242
7.08,0.0073844,-0.00327226,0.00533275,0.599711,-0.0626197,-9.68433,20.8568,0.213481,44.5684,0.999948,0.000864848,0.00682534,-0.00749327,0.00802865,-0.00357848,0.00341588
7.09,0.00534932,-0.00660813,0.00156638,0.541226,-0.0897126,-9.68788,19.2007,0.890285,44.4192,0.999948,0.000856017,0.006814,-0.00749374,0.00804728,-0.00358104,0.00345456
7.1,0.00576169,-0.00916313,0.00436933,0.548694,-0.112838,-9.77883,19.9389,-0.751148,43.8798,0.999948,0.000843755,0.00680146,-0.00749411,0.00807342,-0.00361057,0.00345658
7.11,0.00494021,-0.00366895,0.00671831,0.512129,-0.0282292,-9.76819,19.9641,0.511363,44.4023,0.999949,0.000828118,0.00678769,-0.00749438,0.00799169,-0.0035893,0.00351984
7.12,0.00337216,-0.0106807,0.00292851,0.542782,-0.0388294,-9.64477,20.0418,-0.110389,44.0141,0.999949,0.000809164,0.0067727,-0.00749457,0.00801465,-0.00357979,0.0035762
7.13,0.00578119,-0.00475427,0.00449748,0.527531,0.0849918,-9.70567,19.1806,0.627216,43.8289,0.999949,0.000786955,0.00675649,-0.00749466,0.00802702,-0.00359873,0.00356329
7.14,0.00482123,-0.00547104,0.00381637,0.570556,-0.0661388,-9.70993,20.5546,0.170991,43.863,0.999949,0.000761556,0.00673906,-0.00749466,0.0080383,-0.00362674,0.00352368
7.15,0.00214237,-0.00654876,0.00251084,0.548703,-0.0483093,-9.7589,20.6368,-0.555348,44.7469,0.999949,0.000733036,0.00672041,-0.00749457,0.00806382,-0.00362436,0.00347752
7.16,0.00197784,-0.00924124,0.00555904,0.494338,0.00772751,-9.70715,20.0041,0.687521,44.3601,0.999949,0.000701467,0.00670054,-0.00749439,0.00810421,-0.00361854,0.0035248
